Unit Serial No : EM0P1805-EU
Integration Time : 30 ms
Time Average: 1
Binning Average: 1
FFT Smoothing: 0%
Project Name : Project Name
Sample Name : 0003
Measurement No : 1
Measurement Time : 05/29/2014   15:45:22

Wavelength(nm)	Wavenumber(1/cm)	Intensity(Counts)
350.0000      	28571.4286    	2451.33325    
350.5000      	28530.6705    	2479.66675    
351.0000      	28490.0285    	2488.33325    
351.5000      	28449.5021    	2479.66675    
352.0000      	28409.0909    	2478.33325    
352.5000      	28368.7943    	2474.33325    
353.0000      	28328.6119    	2450.66675    
353.5000      	28288.5431    	2376.33325    
354.0000      	28248.5876    	2369.66675    
354.5000      	28208.7447    	2385.00000    
355.0000      	28169.0141    	2439.00000    
355.5000      	28129.3952    	2455.66675    
356.0000      	28089.8876    	2478.00000    
356.5000      	28050.4909    	2484.66675    
357.0000      	28011.2045    	2413.00000    
357.5000      	27972.0280    	2387.66675    
358.0000      	27932.9609    	2398.00000    
358.5000      	27894.0028    	2376.33325    
359.0000      	27855.1532    	2358.00000    
359.5000      	27816.4117    	2383.66675    
360.0000      	27777.7778    	2443.00000    
360.5000      	27739.2510    	2539.66675    
361.0000      	27700.8310    	2530.00000    
361.5000      	27662.5173    	2501.33325    
362.0000      	27624.3094    	2456.66675    
362.5000      	27586.2069    	2385.66675    
363.0000      	27548.2094    	2389.00000    
363.5000      	27510.3164    	2375.00000    
364.0000      	27472.5275    	2403.66675    
364.5000      	27434.8422    	2456.66675    
365.0000      	27397.2603    	2523.33325    
365.5000      	27359.7811    	2542.00000    
366.0000      	27322.4044    	2549.66675    
366.5000      	27285.1296    	2485.33325    
367.0000      	27247.9564    	2439.00000    
367.5000      	27210.8844    	2407.33325    
368.0000      	27173.9130    	2415.66675    
368.5000      	27137.0421    	2430.00000    
369.0000      	27100.2710    	2430.00000    
369.5000      	27063.5995    	2461.66675    
370.0000      	27027.0270    	2503.00000    
370.5000      	26990.5533    	2496.33325    
371.0000      	26954.1779    	2488.66675    
371.5000      	26917.9004    	2487.00000    
372.0000      	26881.7204    	2431.00000    
372.5000      	26845.6376    	2407.66675    
373.0000      	26809.6515    	2395.00000    
373.5000      	26773.7617    	2408.00000    
374.0000      	26737.9679    	2471.33325    
374.5000      	26702.2697    	2476.66675    
375.0000      	26666.6667    	2480.66675    
375.5000      	26631.1585    	2515.66675    
376.0000      	26595.7447    	2546.33325    
376.5000      	26560.4250    	2531.33325    
377.0000      	26525.1989    	2506.00000    
377.5000      	26490.0662    	2434.33325    
378.0000      	26455.0265    	2465.66675    
378.5000      	26420.0793    	2493.66675    
379.0000      	26385.2243    	2527.66675    
379.5000      	26350.4611    	2546.33325    
380.0000      	26315.7895    	2559.66675    
380.5000      	26281.2089    	2556.33325    
381.0000      	26246.7192    	2524.00000    
381.5000      	26212.3198    	2438.33325    
382.0000      	26178.0105    	2418.66675    
382.5000      	26143.7908    	2411.66675    
383.0000      	26109.6606    	2414.66675    
383.5000      	26075.6193    	2459.66675    
384.0000      	26041.6667    	2481.00000    
384.5000      	26007.8023    	2469.33325    
385.0000      	25974.0260    	2440.66675    
385.5000      	25940.3372    	2446.66675    
386.0000      	25906.7358    	2443.00000    
386.5000      	25873.2212    	2447.00000    
387.0000      	25839.7933    	2427.66675    
387.5000      	25806.4516    	2431.66675    
388.0000      	25773.1959    	2439.00000    
388.5000      	25740.0257    	2399.33325    
389.0000      	25706.9409    	2463.33325    
389.5000      	25673.9409    	2532.00000    
390.0000      	25641.0256    	2554.66675    
390.5000      	25608.1946    	2513.00000    
391.0000      	25575.4476    	2482.33325    
391.5000      	25542.7842    	2467.00000    
392.0000      	25510.2041    	2453.66675    
392.5000      	25477.7070    	2440.00000    
393.0000      	25445.2926    	2455.00000    
393.5000      	25412.9606    	2478.33325    
394.0000      	25380.7107    	2498.66675    
394.5000      	25348.5425    	2502.66675    
395.0000      	25316.4557    	2465.66675    
395.5000      	25284.4501    	2450.33325    
396.0000      	25252.5253    	2461.66675    
396.5000      	25220.6810    	2504.66675    
397.0000      	25188.9169    	2511.66675    
397.5000      	25157.2327    	2501.33325    
398.0000      	25125.6281    	2504.66675    
398.5000      	25094.1029    	2618.66675    
399.0000      	25062.6566    	2672.00000    
399.5000      	25031.2891    	2691.00000    
400.0000      	25000.0000    	2728.66675    
400.5000      	24968.7890    	2896.66675    
401.0000      	24937.6559    	3050.33325    
401.5000      	24906.6002    	3313.33325    
402.0000      	24875.6219    	3813.66675    
402.5000      	24844.7205    	5780.33350    
403.0000      	24813.8958    	7492.00000    
403.5000      	24783.1475    	9825.33301    
404.0000      	24752.4752    	12790.33301   
404.5000      	24721.8789    	20464.00000   
405.0000      	24691.3580    	24551.66602   
405.5000      	24660.9125    	28325.00000   
406.0000      	24630.5419    	31750.00000   
406.5000      	24600.2460    	38363.66797   
407.0000      	24570.0246    	41340.66797   
407.5000      	24539.8773    	43389.33203   
408.0000      	24509.8039    	44387.66797   
408.5000      	24479.8042    	42872.00000   
409.0000      	24449.8778    	40628.00000   
409.5000      	24420.0244    	37971.66797   
410.0000      	24390.2439    	35317.66797   
410.5000      	24360.5359    	29284.33398   
411.0000      	24330.9002    	25278.00000   
411.5000      	24301.3366    	21075.66602   
412.0000      	24271.8447    	17231.66602   
412.5000      	24242.4242    	11122.66699   
413.0000      	24213.0751    	8877.66699    
413.5000      	24183.7969    	7171.66650    
414.0000      	24154.5894    	5868.33350    
414.5000      	24125.4524    	4022.00000    
415.0000      	24096.3855    	3435.66675    
415.5000      	24067.3887    	3070.33325    
416.0000      	24038.4615    	2840.33325    
416.5000      	24009.6038    	2574.00000    
417.0000      	23980.8153    	2516.00000    
417.5000      	23952.0958    	2499.00000    
418.0000      	23923.4450    	2501.33325    
418.5000      	23894.8626    	2485.00000    
419.0000      	23866.3484    	2453.66675    
419.5000      	23837.9023    	2403.33325    
420.0000      	23809.5238    	2389.33325    
420.5000      	23781.2128    	2419.33325    
421.0000      	23752.9691    	2434.66675    
421.5000      	23724.7924    	2431.66675    
422.0000      	23696.6825    	2464.66675    
422.5000      	23668.6391    	2507.33325    
423.0000      	23640.6619    	2500.33325    
423.5000      	23612.7509    	2490.00000    
424.0000      	23584.9057    	2493.66675    
424.5000      	23557.1260    	2509.33325    
425.0000      	23529.4118    	2459.33325    
425.5000      	23501.7626    	2415.66675    
426.0000      	23474.1784    	2429.00000    
426.5000      	23446.6589    	2487.33325    
427.0000      	23419.2037    	2512.00000    
427.5000      	23391.8129    	2546.00000    
428.0000      	23364.4860    	2520.33325    
428.5000      	23337.2229    	2457.33325    
429.0000      	23310.0233    	2456.33325    
429.5000      	23282.8871    	2457.66675    
430.0000      	23255.8140    	2434.66675    
430.5000      	23228.8037    	2395.00000    
431.0000      	23201.8561    	2412.00000    
431.5000      	23174.9710    	2427.00000    
432.0000      	23148.1481    	2455.66675    
432.5000      	23121.3873    	2506.33325    
433.0000      	23094.6882    	2490.66675    
433.5000      	23068.0507    	2475.33325    
434.0000      	23041.4747    	2483.33325    
434.5000      	23014.9597    	2471.66675    
435.0000      	22988.5057    	2421.66675    
435.5000      	22962.1125    	2425.33325    
436.0000      	22935.7798    	2454.66675    
436.5000      	22909.5074    	2573.00000    
437.0000      	22883.2952    	2602.00000    
437.5000      	22857.1429    	2574.33325    
438.0000      	22831.0502    	2530.33325    
438.5000      	22805.0171    	2442.33325    
439.0000      	22779.0433    	2446.33325    
439.5000      	22753.1286    	2438.00000    
440.0000      	22727.2727    	2434.66675    
440.5000      	22701.4756    	2409.33325    
441.0000      	22675.7370    	2426.00000    
441.5000      	22650.0566    	2475.66675    
442.0000      	22624.4344    	2506.00000    
442.5000      	22598.8701    	2484.66675    
443.0000      	22573.3634    	2438.00000    
443.5000      	22547.9143    	2411.33325    
444.0000      	22522.5225    	2402.00000    
444.5000      	22497.1879    	2443.00000    
445.0000      	22471.9101    	2423.33325    
445.5000      	22446.6891    	2427.00000    
446.0000      	22421.5247    	2456.33325    
446.5000      	22396.4166    	2509.00000    
447.0000      	22371.3647    	2500.33325    
447.5000      	22346.3687    	2506.66675    
448.0000      	22321.4286    	2482.66675    
448.5000      	22296.5440    	2471.33325    
449.0000      	22271.7149    	2425.33325    
449.5000      	22246.9410    	2425.66675    
450.0000      	22222.2222    	2437.66675    
450.5000      	22197.5583    	2494.33325    
451.0000      	22172.9490    	2540.66675    
451.5000      	22148.3942    	2513.66675    
452.0000      	22123.8938    	2515.33325    
452.5000      	22099.4475    	2525.00000    
453.0000      	22075.0552    	2498.00000    
453.5000      	22050.7166    	2442.00000    
454.0000      	22026.4317    	2420.33325    
454.5000      	22002.2002    	2398.66675    
455.0000      	21978.0220    	2404.66675    
455.5000      	21953.8968    	2423.66675    
456.0000      	21929.8246    	2460.33325    
456.5000      	21905.8050    	2486.00000    
457.0000      	21881.8381    	2510.66675    
457.5000      	21857.9235    	2496.00000    
458.0000      	21834.0611    	2510.33325    
458.5000      	21810.2508    	2455.66675    
459.0000      	21786.4924    	2391.33325    
459.5000      	21762.7856    	2395.00000    
460.0000      	21739.1304    	2416.66675    
460.5000      	21715.5266    	2443.66675    
461.0000      	21691.9740    	2464.00000    
461.5000      	21668.4724    	2505.66675    
462.0000      	21645.0216    	2531.66675    
462.5000      	21621.6216    	2536.00000    
463.0000      	21598.2721    	2502.00000    
463.5000      	21574.9730    	2409.66675    
464.0000      	21551.7241    	2388.66675    
464.5000      	21528.5253    	2379.66675    
465.0000      	21505.3763    	2409.66675    
465.5000      	21482.2771    	2496.00000    
466.0000      	21459.2275    	2506.00000    
466.5000      	21436.2272    	2533.00000    
467.0000      	21413.2762    	2545.00000    
467.5000      	21390.3743    	2455.33325    
468.0000      	21367.5214    	2414.33325    
468.5000      	21344.7172    	2417.00000    
469.0000      	21321.9616    	2424.00000    
469.5000      	21299.2545    	2446.66675    
470.0000      	21276.5957    	2475.00000    
470.5000      	21253.9851    	2494.66675    
471.0000      	21231.4225    	2506.66675    
471.5000      	21208.9077    	2545.66675    
472.0000      	21186.4407    	2536.66675    
472.5000      	21164.0212    	2482.00000    
473.0000      	21141.6490    	2466.33325    
473.5000      	21119.3242    	2454.00000    
474.0000      	21097.0464    	2476.00000    
474.5000      	21074.8156    	2486.33325    
475.0000      	21052.6316    	2478.66675    
475.5000      	21030.4942    	2481.66675    
476.0000      	21008.4034    	2559.00000    
476.5000      	20986.3589    	2595.33325    
477.0000      	20964.3606    	2599.00000    
477.5000      	20942.4084    	2561.66675    
478.0000      	20920.5021    	2457.33325    
478.5000      	20898.6416    	2448.00000    
479.0000      	20876.8267    	2463.66675    
479.5000      	20855.0574    	2488.00000    
480.0000      	20833.3333    	2520.66675    
480.5000      	20811.6545    	2592.66675    
481.0000      	20790.0208    	2612.66675    
481.5000      	20768.4320    	2624.66675    
482.0000      	20746.8880    	2602.00000    
482.5000      	20725.3886    	2585.00000    
483.0000      	20703.9337    	2570.66675    
483.5000      	20682.5233    	2543.66675    
484.0000      	20661.1570    	2500.33325    
484.5000      	20639.8349    	2548.66675    
485.0000      	20618.5567    	2607.33325    
485.5000      	20597.3223    	2635.66675    
486.0000      	20576.1317    	2622.00000    
486.5000      	20554.9846    	2629.00000    
487.0000      	20533.8809    	2607.66675    
487.5000      	20512.8205    	2581.00000    
488.0000      	20491.8033    	2528.00000    
488.5000      	20470.8291    	2525.00000    
489.0000      	20449.8978    	2562.66675    
489.5000      	20429.0092    	2572.33325    
490.0000      	20408.1633    	2589.66675    
490.5000      	20387.3598    	2609.66675    
491.0000      	20366.5988    	2726.66675    
491.5000      	20345.8800    	2749.00000    
492.0000      	20325.2033    	2736.00000    
492.5000      	20304.5685    	2737.66675    
493.0000      	20283.9757    	2733.00000    
493.5000      	20263.4245    	2731.33325    
494.0000      	20242.9150    	2723.33325    
494.5000      	20222.4469    	2758.33325    
495.0000      	20202.0202    	2799.33325    
495.5000      	20181.6347    	2927.33325    
496.0000      	20161.2903    	2988.33325    
496.5000      	20140.9869    	3041.66675    
497.0000      	20120.7243    	3068.66675    
497.5000      	20100.5025    	3291.33325    
498.0000      	20080.3213    	3544.00000    
498.5000      	20060.1805    	3818.00000    
499.0000      	20040.0802    	4086.66675    
499.5000      	20020.0200    	4329.00000    
500.0000      	20000.0000    	4881.66650    
500.5000      	19980.0200    	5201.66650    
501.0000      	19960.0798    	5563.33350    
501.5000      	19940.1795    	5898.66650    
502.0000      	19920.3187    	6519.66650    
502.5000      	19900.4975    	6882.66650    
503.0000      	19880.7157    	7330.33350    
503.5000      	19860.9732    	7762.33350    
504.0000      	19841.2698    	8228.00000    
504.5000      	19821.6056    	9199.33301    
505.0000      	19801.9802    	9628.00000    
505.5000      	19782.3937    	10064.33301   
506.0000      	19762.8458    	10490.66699   
506.5000      	19743.3366    	11436.33301   
507.0000      	19723.8659    	11992.00000   
507.5000      	19704.4335    	12764.66699   
508.0000      	19685.0394    	13735.66699   
508.5000      	19665.6834    	14911.33301   
509.0000      	19646.3654    	17530.33398   
509.5000      	19627.0854    	18960.66602   
510.0000      	19607.8431    	20529.00000   
510.5000      	19588.6386    	22269.66602   
511.0000      	19569.4716    	26158.00000   
511.5000      	19550.3421    	28281.33398   
512.0000      	19531.2500    	30079.66602   
512.5000      	19512.1951    	31634.33398   
513.0000      	19493.1774    	34221.66797   
513.5000      	19474.1967    	35386.33203   
514.0000      	19455.2529    	36480.66797   
514.5000      	19436.3460    	37479.66797   
515.0000      	19417.4757    	38159.00000   
515.5000      	19398.6421    	38468.33203   
516.0000      	19379.8450    	38091.33203   
516.5000      	19361.0842    	37334.00000   
517.0000      	19342.3598    	36484.33203   
517.5000      	19323.6715    	34694.66797   
518.0000      	19305.0193    	33663.33203   
518.5000      	19286.4031    	32237.66602   
519.0000      	19267.8227    	30429.33398   
519.5000      	19249.2782    	28206.66602   
520.0000      	19230.7692    	24175.33398   
520.5000      	19212.2959    	22297.00000   
521.0000      	19193.8580    	20481.00000   
521.5000      	19175.4554    	18782.00000   
522.0000      	19157.0881    	15733.66699   
522.5000      	19138.7560    	14264.66699   
523.0000      	19120.4589    	12845.33301   
523.5000      	19102.1968    	11570.33301   
524.0000      	19083.9695    	10454.00000   
524.5000      	19065.7769    	8638.66699    
525.0000      	19047.6190    	7865.00000    
525.5000      	19029.4957    	7207.33350    
526.0000      	19011.4068    	6594.66650    
526.5000      	18993.3523    	6041.00000    
527.0000      	18975.3321    	5318.66650    
527.5000      	18957.3460    	5120.33350    
528.0000      	18939.3939    	4890.66650    
528.5000      	18921.4759    	4641.33350    
529.0000      	18903.5917    	4220.66650    
529.5000      	18885.7413    	4022.00000    
530.0000      	18867.9245    	3776.33325    
530.5000      	18850.1414    	3555.00000    
531.0000      	18832.3917    	3356.00000    
531.5000      	18814.6754    	3051.00000    
532.0000      	18796.9925    	2884.33325    
532.5000      	18779.3427    	2734.33325    
533.0000      	18761.7261    	2648.33325    
533.5000      	18744.1425    	2676.66675    
534.0000      	18726.5918    	2685.00000    
534.5000      	18709.0739    	2672.00000    
535.0000      	18691.5888    	2635.66675    
535.5000      	18674.1363    	2603.33325    
536.0000      	18656.7164    	2507.33325    
536.5000      	18639.3290    	2484.33325    
537.0000      	18621.9739    	2455.33325    
537.5000      	18604.6512    	2434.33325    
538.0000      	18587.3606    	2412.33325    
538.5000      	18570.1021    	2432.00000    
539.0000      	18552.8757    	2465.66675    
539.5000      	18535.6812    	2502.33325    
540.0000      	18518.5185    	2523.66675    
540.5000      	18501.3876    	2542.66675    
541.0000      	18484.2884    	2566.66675    
541.5000      	18467.2207    	2569.00000    
542.0000      	18450.1845    	2584.00000    
542.5000      	18433.1797    	2609.00000    
543.0000      	18416.2063    	2658.00000    
543.5000      	18399.2640    	2710.33325    
544.0000      	18382.3529    	2798.00000    
544.5000      	18365.4729    	2854.33325    
545.0000      	18348.6239    	2877.00000    
545.5000      	18331.8057    	2870.33325    
546.0000      	18315.0183    	2859.66675    
546.5000      	18298.2617    	2809.66675    
547.0000      	18281.5356    	2773.00000    
547.5000      	18264.8402    	2786.00000    
548.0000      	18248.1752    	2726.00000    
548.5000      	18231.5406    	2612.00000    
549.0000      	18214.9362    	2595.66675    
549.5000      	18198.3621    	2597.00000    
550.0000      	18181.8182    	2641.33325    
550.5000      	18165.3043    	2654.00000    
551.0000      	18148.8203    	2656.33325    
551.5000      	18132.3663    	2581.33325    
552.0000      	18115.9420    	2496.00000    
552.5000      	18099.5475    	2491.33325    
553.0000      	18083.1826    	2499.66675    
553.5000      	18066.8473    	2552.66675    
554.0000      	18050.5415    	2594.33325    
554.5000      	18034.2651    	2591.66675    
555.0000      	18018.0180    	2563.00000    
555.5000      	18001.8002    	2545.00000    
556.0000      	17985.6115    	2502.66675    
556.5000      	17969.4519    	2481.66675    
557.0000      	17953.3214    	2442.66675    
557.5000      	17937.2197    	2415.00000    
558.0000      	17921.1470    	2379.33325    
558.5000      	17905.1030    	2373.33325    
559.0000      	17889.0877    	2402.00000    
559.5000      	17873.1010    	2441.00000    
560.0000      	17857.1429    	2482.00000    
560.5000      	17841.2132    	2508.66675    
561.0000      	17825.3119    	2506.66675    
561.5000      	17809.4390    	2471.33325    
562.0000      	17793.5943    	2445.66675    
562.5000      	17777.7778    	2429.33325    
563.0000      	17761.9893    	2393.33325    
563.5000      	17746.2289    	2407.66675    
564.0000      	17730.4965    	2504.33325    
564.5000      	17714.7919    	2533.66675    
565.0000      	17699.1150    	2528.66675    
565.5000      	17683.4660    	2540.00000    
566.0000      	17667.8445    	2494.66675    
566.5000      	17652.2507    	2398.66675    
567.0000      	17636.6843    	2386.00000    
567.5000      	17621.1454    	2383.66675    
568.0000      	17605.6338    	2382.33325    
568.5000      	17590.1495    	2412.00000    
569.0000      	17574.6924    	2452.66675    
569.5000      	17559.2625    	2479.33325    
570.0000      	17543.8596    	2487.33325    
570.5000      	17528.4838    	2465.00000    
571.0000      	17513.1349    	2418.00000    
571.5000      	17497.8128    	2407.00000    
572.0000      	17482.5175    	2394.33325    
572.5000      	17467.2489    	2376.00000    
573.0000      	17452.0070    	2372.00000    
573.5000      	17436.7916    	2429.66675    
574.0000      	17421.6028    	2470.66675    
574.5000      	17406.4404    	2481.00000    
575.0000      	17391.3043    	2483.33325    
575.5000      	17376.1946    	2493.33325    
576.0000      	17361.1111    	2507.33325    
576.5000      	17346.0538    	2517.66675    
577.0000      	17331.0225    	2508.00000    
577.5000      	17316.0173    	2519.66675    
578.0000      	17301.0381    	2479.66675    
578.5000      	17286.0847    	2503.33325    
579.0000      	17271.1572    	2580.33325    
579.5000      	17256.2554    	2635.33325    
580.0000      	17241.3793    	2666.33325    
580.5000      	17226.5289    	2642.00000    
581.0000      	17211.7040    	2610.00000    
581.5000      	17196.9046    	2551.00000    
582.0000      	17182.1306    	2508.33325    
582.5000      	17167.3820    	2473.33325    
583.0000      	17152.6587    	2493.33325    
583.5000      	17137.9606    	2496.00000    
584.0000      	17123.2877    	2529.66675    
584.5000      	17108.6399    	2513.66675    
585.0000      	17094.0171    	2525.33325    
585.5000      	17079.4193    	2510.00000    
586.0000      	17064.8464    	2502.66675    
586.5000      	17050.2984    	2495.33325    
587.0000      	17035.7751    	2462.33325    
587.5000      	17021.2766    	2451.66675    
588.0000      	17006.8027    	2482.00000    
588.5000      	16992.3534    	2521.66675    
589.0000      	16977.9287    	2571.00000    
589.5000      	16963.5284    	2591.33325    
590.0000      	16949.1525    	2617.66675    
590.5000      	16934.8010    	2664.00000    
591.0000      	16920.4738    	2678.33325    
591.5000      	16906.1708    	2684.66675    
592.0000      	16891.8919    	2670.00000    
592.5000      	16877.6371    	2647.00000    
593.0000      	16863.4064    	2701.33325    
593.5000      	16849.1997    	2774.66675    
594.0000      	16835.0168    	2846.66675    
594.5000      	16820.8579    	2879.66675    
595.0000      	16806.7227    	2921.33325    
595.5000      	16792.6113    	2888.33325    
596.0000      	16778.5235    	2826.66675    
596.5000      	16764.4593    	2784.00000    
597.0000      	16750.4188    	2788.00000    
597.5000      	16736.4017    	2756.00000    
598.0000      	16722.4080    	2694.33325    
598.5000      	16708.4378    	2700.66675    
599.0000      	16694.4908    	2734.00000    
599.5000      	16680.5671    	2738.33325    
600.0000      	16666.6667    	2729.00000    
600.5000      	16652.7893    	2644.33325    
601.0000      	16638.9351    	2604.00000    
601.5000      	16625.1039    	2548.00000    
602.0000      	16611.2957    	2516.33325    
602.5000      	16597.5104    	2497.33325    
603.0000      	16583.7479    	2475.66675    
603.5000      	16570.0083    	2473.33325    
604.0000      	16556.2914    	2492.33325    
604.5000      	16542.5972    	2492.00000    
605.0000      	16528.9256    	2508.66675    
605.5000      	16515.2766    	2526.66675    
606.0000      	16501.6502    	2500.33325    
606.5000      	16488.0462    	2462.33325    
607.0000      	16474.4646    	2439.66675    
607.5000      	16460.9053    	2428.33325    
608.0000      	16447.3684    	2434.66675    
608.5000      	16433.8537    	2459.66675    
609.0000      	16420.3612    	2509.00000    
609.5000      	16406.8909    	2540.00000    
610.0000      	16393.4426    	2559.66675    
610.5000      	16380.0164    	2559.00000    
611.0000      	16366.6121    	2509.66675    
611.5000      	16353.2298    	2490.66675    
612.0000      	16339.8693    	2482.66675    
612.5000      	16326.5306    	2700.66675    
613.0000      	16313.2137    	2807.66675    
613.5000      	16299.9185    	2833.33325    
614.0000      	16286.6450    	2785.66675    
614.5000      	16273.3930    	2740.00000    
615.0000      	16260.1626    	2674.33325    
615.5000      	16246.9537    	2573.66675    
616.0000      	16233.7662    	2553.00000    
616.5000      	16220.6002    	2544.00000    
617.0000      	16207.4554    	2526.66675    
617.5000      	16194.3320    	2489.66675    
618.0000      	16181.2298    	2440.33325    
618.5000      	16168.1487    	2449.33325    
619.0000      	16155.0889    	2483.66675    
619.5000      	16142.0500    	2513.00000    
620.0000      	16129.0323    	2541.33325    
620.5000      	16116.0355    	2521.66675    
621.0000      	16103.0596    	2474.66675    
621.5000      	16090.1046    	2446.00000    
622.0000      	16077.1704    	2433.00000    
622.5000      	16064.2570    	2443.33325    
623.0000      	16051.3644    	2481.00000    
623.5000      	16038.4924    	2483.66675    
624.0000      	16025.6410    	2478.00000    
624.5000      	16012.8102    	2466.00000    
625.0000      	16000.0000    	2506.66675    
625.5000      	15987.2102    	2540.33325    
626.0000      	15974.4409    	2484.00000    
626.5000      	15961.6919    	2409.33325    
627.0000      	15948.9633    	2405.00000    
627.5000      	15936.2550    	2416.66675    
628.0000      	15923.5669    	2445.66675    
628.5000      	15910.8990    	2455.33325    
629.0000      	15898.2512    	2467.33325    
629.5000      	15885.6235    	2483.33325    
630.0000      	15873.0159    	2503.66675    
630.5000      	15860.4282    	2497.33325    
631.0000      	15847.8605    	2466.66675    
631.5000      	15835.3127    	2435.00000    
632.0000      	15822.7848    	2414.33325    
632.5000      	15810.2767    	2422.33325    
633.0000      	15797.7883    	2483.33325    
633.5000      	15785.3197    	2504.66675    
634.0000      	15772.8707    	2517.33325    
634.5000      	15760.4413    	2508.33325    
635.0000      	15748.0315    	2509.00000    
635.5000      	15735.6412    	2473.33325    
636.0000      	15723.2704    	2444.66675    
636.5000      	15710.9191    	2407.33325    
637.0000      	15698.5871    	2404.66675    
637.5000      	15686.2745    	2391.00000    
638.0000      	15673.9812    	2378.00000    
638.5000      	15661.7071    	2406.00000    
639.0000      	15649.4523    	2446.66675    
639.5000      	15637.2166    	2450.00000    
640.0000      	15625.0000    	2444.66675    
640.5000      	15612.8025    	2436.66675    
641.0000      	15600.6240    	2451.66675    
641.5000      	15588.4645    	2431.33325    
642.0000      	15576.3240    	2431.66675    
642.5000      	15564.2023    	2408.33325    
643.0000      	15552.0995    	2420.00000    
643.5000      	15540.0155    	2432.00000    
644.0000      	15527.9503    	2435.66675    
644.5000      	15515.9038    	2436.00000    
645.0000      	15503.8760    	2448.66675    
645.5000      	15491.8668    	2470.66675    
646.0000      	15479.8762    	2441.66675    
646.5000      	15467.9041    	2409.66675    
647.0000      	15455.9505    	2428.00000    
647.5000      	15444.0154    	2407.33325    
648.0000      	15432.0988    	2381.66675    
648.5000      	15420.2005    	2385.66675    
649.0000      	15408.3205    	2425.66675    
649.5000      	15396.4588    	2446.33325    
650.0000      	15384.6154    	2438.00000    
650.5000      	15372.7902    	2421.66675    
651.0000      	15360.9831    	2408.33325    
651.5000      	15349.1942    	2411.66675    
652.0000      	15337.4233    	2397.00000    
652.5000      	15325.6705    	2375.33325    
653.0000      	15313.9357    	2371.00000    
653.5000      	15302.2188    	2396.00000    
654.0000      	15290.5199    	2469.66675    
654.5000      	15278.8388    	2504.00000    
655.0000      	15267.1756    	2505.00000    
655.5000      	15255.5301    	2485.00000    
656.0000      	15243.9024    	2480.66675    
656.5000      	15232.2925    	2429.66675    
657.0000      	15220.7002    	2377.66675    
657.5000      	15209.1255    	2359.66675    
658.0000      	15197.5684    	2376.66675    
658.5000      	15186.0289    	2400.66675    
659.0000      	15174.5068    	2456.66675    
659.5000      	15163.0023    	2485.66675    
660.0000      	15151.5152    	2491.33325    
660.5000      	15140.0454    	2517.66675    
661.0000      	15128.5930    	2549.33325    
661.5000      	15117.1580    	2465.00000    
662.0000      	15105.7402    	2379.33325    
662.5000      	15094.3396    	2362.00000    
663.0000      	15082.9563    	2345.00000    
663.5000      	15071.5901    	2362.33325    
664.0000      	15060.2410    	2405.66675    
664.5000      	15048.9090    	2500.66675    
665.0000      	15037.5940    	2513.33325    
665.5000      	15026.2960    	2543.66675    
666.0000      	15015.0150    	2514.00000    
666.5000      	15003.7509    	2460.66675    
667.0000      	14992.5037    	2403.66675    
667.5000      	14981.2734    	2380.00000    
668.0000      	14970.0599    	2350.00000    
668.5000      	14958.8631    	2353.00000    
669.0000      	14947.6831    	2397.33325    
669.5000      	14936.5198    	2475.33325    
670.0000      	14925.3731    	2489.00000    
670.5000      	14914.2431    	2503.33325    
671.0000      	14903.1297    	2486.66675    
671.5000      	14892.0328    	2471.66675    
672.0000      	14880.9524    	2477.00000    
672.5000      	14869.8885    	2458.33325    
673.0000      	14858.8410    	2420.66675    
673.5000      	14847.8099    	2392.33325    
674.0000      	14836.7953    	2386.66675    
674.5000      	14825.7969    	2427.33325    
675.0000      	14814.8148    	2486.00000    
675.5000      	14803.8490    	2504.66675    
676.0000      	14792.8994    	2496.00000    
676.5000      	14781.9660    	2473.33325    
677.0000      	14771.0487    	2407.33325    
677.5000      	14760.1476    	2420.33325    
678.0000      	14749.2625    	2441.00000    
678.5000      	14738.3935    	2430.33325    
679.0000      	14727.5405    	2442.33325    
679.5000      	14716.7035    	2496.33325    
680.0000      	14705.8824    	2524.66675    
680.5000      	14695.0771    	2509.33325    
681.0000      	14684.2878    	2496.66675    
681.5000      	14673.5143    	2460.33325    
682.0000      	14662.7566    	2420.66675    
682.5000      	14652.0147    	2391.66675    
683.0000      	14641.2884    	2402.00000    
683.5000      	14630.5779    	2429.66675    
684.0000      	14619.8830    	2420.66675    
684.5000      	14609.2038    	2413.33325    
685.0000      	14598.5401    	2412.00000    
685.5000      	14587.8920    	2446.00000    
686.0000      	14577.2595    	2495.66675    
686.5000      	14566.6424    	2472.00000    
687.0000      	14556.0408    	2434.00000    
687.5000      	14545.4545    	2417.66675    
688.0000      	14534.8837    	2416.00000    
688.5000      	14524.3282    	2434.00000    
689.0000      	14513.7881    	2448.66675    
689.5000      	14503.2632    	2464.66675    
690.0000      	14492.7536    	2465.33325    
690.5000      	14482.2592    	2467.00000    
691.0000      	14471.7800    	2469.00000    
691.5000      	14461.3160    	2457.33325    
692.0000      	14450.8671    	2427.66675    
692.5000      	14440.4332    	2417.33325    
693.0000      	14430.0144    	2405.00000    
693.5000      	14419.6107    	2401.00000    
694.0000      	14409.2219    	2431.00000    
694.5000      	14398.8481    	2466.66675    
695.0000      	14388.4892    	2473.66675    
695.5000      	14378.1452    	2463.66675    
696.0000      	14367.8161    	2471.66675    
696.5000      	14357.5018    	2492.66675    
697.0000      	14347.2023    	2466.33325    
697.5000      	14336.9176    	2423.33325    
698.0000      	14326.6476    	2390.33325    
698.5000      	14316.3923    	2384.66675    
699.0000      	14306.1516    	2397.33325    
699.5000      	14295.9257    	2406.00000    
700.0000      	14285.7143    	2432.66675    
700.5000      	14275.5175    	2474.00000    
701.0000      	14265.3352    	2479.66675    
701.5000      	14255.1675    	2464.66675    
702.0000      	14245.0142    	2426.33325    
702.5000      	14234.8754    	2414.66675    
703.0000      	14224.7511    	2399.33325    
703.5000      	14214.6411    	2381.66675    
704.0000      	14204.5455    	2387.33325    
704.5000      	14194.4642    	2422.00000    
705.0000      	14184.3972    	2492.33325    
705.5000      	14174.3444    	2501.00000    
706.0000      	14164.3059    	2499.66675    
706.5000      	14154.2817    	2501.66675    
707.0000      	14144.2716    	2512.00000    
707.5000      	14134.2756    	2485.33325    
708.0000      	14124.2938    	2443.66675    
708.5000      	14114.3260    	2440.33325    
709.0000      	14104.3724    	2431.66675    
709.5000      	14094.4327    	2430.33325    
710.0000      	14084.5070    	2428.33325    
710.5000      	14074.5954    	2451.33325    
711.0000      	14064.6976    	2465.00000    
711.5000      	14054.8138    	2460.66675    
712.0000      	14044.9438    	2442.66675    
712.5000      	14035.0877    	2414.33325    
713.0000      	14025.2454    	2373.33325    
713.5000      	14015.4170    	2323.00000    
714.0000      	14005.6022    	2329.00000    
714.5000      	13995.8013    	2372.33325    
715.0000      	13986.0140    	2414.00000    
715.5000      	13976.2404    	2436.00000    
716.0000      	13966.4804    	2408.66675    
716.5000      	13956.7341    	2427.66675    
717.0000      	13947.0014    	2446.66675    
717.5000      	13937.2822    	2431.66675    
718.0000      	13927.5766    	2403.66675    
718.5000      	13917.8845    	2353.66675    
719.0000      	13908.2058    	2371.66675    
719.5000      	13898.5407    	2415.00000    
720.0000      	13888.8889    	2455.33325    
720.5000      	13879.2505    	2457.00000    
721.0000      	13869.6255    	2468.33325    
721.5000      	13860.0139    	2503.33325    
722.0000      	13850.4155    	2508.33325    
722.5000      	13840.8304    	2470.33325    
723.0000      	13831.2586    	2438.00000    
723.5000      	13821.7001    	2431.66675    
724.0000      	13812.1547    	2425.00000    
724.5000      	13802.6225    	2362.33325    
725.0000      	13793.1034    	2388.66675    
725.5000      	13783.5975    	2431.66675    
726.0000      	13774.1047    	2438.00000    
726.5000      	13764.6249    	2430.00000    
727.0000      	13755.1582    	2436.00000    
727.5000      	13745.7045    	2429.66675    
728.0000      	13736.2637    	2391.33325    
728.5000      	13726.8360    	2370.00000    
729.0000      	13717.4211    	2366.00000    
729.5000      	13708.0192    	2374.66675    
730.0000      	13698.6301    	2424.66675    
730.5000      	13689.2539    	2458.33325    
731.0000      	13679.8906    	2471.33325    
731.5000      	13670.5400    	2475.33325    
732.0000      	13661.2022    	2459.00000    
732.5000      	13651.8771    	2435.66675    
733.0000      	13642.5648    	2401.00000    
733.5000      	13633.2652    	2365.66675    
734.0000      	13623.9782    	2363.00000    
734.5000      	13614.7039    	2378.66675    
735.0000      	13605.4422    	2433.00000    
735.5000      	13596.1931    	2471.66675    
736.0000      	13586.9565    	2486.66675    
736.5000      	13577.7325    	2483.33325    
737.0000      	13568.5210    	2467.66675    
737.5000      	13559.3220    	2440.00000    
738.0000      	13550.1355    	2413.00000    
738.5000      	13540.9614    	2422.66675    
739.0000      	13531.7997    	2410.66675    
739.5000      	13522.6504    	2384.33325    
740.0000      	13513.5135    	2390.66675    
740.5000      	13504.3889    	2416.33325    
741.0000      	13495.2767    	2427.66675    
741.5000      	13486.1767    	2457.66675    
742.0000      	13477.0889    	2479.33325    
742.5000      	13468.0135    	2481.00000    
743.0000      	13458.9502    	2442.33325    
743.5000      	13449.8991    	2437.00000    
744.0000      	13440.8602    	2432.33325    
744.5000      	13431.8334    	2406.66675    
745.0000      	13422.8188    	2424.66675    
745.5000      	13413.8162    	2439.33325    
746.0000      	13404.8257    	2457.33325    
746.5000      	13395.8473    	2460.33325    
747.0000      	13386.8809    	2480.00000    
747.5000      	13377.9264    	2479.33325    
748.0000      	13368.9840    	2441.33325    
748.5000      	13360.0534    	2408.33325    
749.0000      	13351.1348    	2385.00000    
749.5000      	13342.2282    	2382.33325    
750.0000      	13333.3333    	2408.33325    
750.5000      	13324.4504    	2443.33325    
751.0000      	13315.5792    	2474.66675    
751.5000      	13306.7199    	2476.00000    
752.0000      	13297.8723    	2469.33325    
752.5000      	13289.0365    	2482.00000    
753.0000      	13280.2125    	2471.00000    
753.5000      	13271.4001    	2423.33325    
754.0000      	13262.5995    	2384.00000    
754.5000      	13253.8105    	2362.33325    
755.0000      	13245.0331    	2359.00000    
755.5000      	13236.2674    	2377.00000    
756.0000      	13227.5132    	2422.00000    
756.5000      	13218.7707    	2434.00000    
757.0000      	13210.0396    	2457.66675    
757.5000      	13201.3201    	2509.33325    
758.0000      	13192.6121    	2507.33325    
758.5000      	13183.9156    	2483.33325    
759.0000      	13175.2306    	2414.00000    
759.5000      	13166.5569    	2396.00000    
760.0000      	13157.8947    	2391.33325    
760.5000      	13149.2439    	2427.00000    
761.0000      	13140.6045    	2483.66675    
761.5000      	13131.9764    	2526.33325    
762.0000      	13123.3596    	2530.66675    
762.5000      	13114.7541    	2528.33325    
763.0000      	13106.1599    	2551.66675    
763.5000      	13097.5769    	2532.00000    
764.0000      	13089.0052    	2496.00000    
764.5000      	13080.4447    	2411.33325    
765.0000      	13071.8954    	2404.66675    
765.5000      	13063.3573    	2394.00000    
766.0000      	13054.8303    	2429.66675    
766.5000      	13046.3144    	2446.33325    
767.0000      	13037.8096    	2469.66675    
767.5000      	13029.3160    	2488.00000    
768.0000      	13020.8333    	2482.33325    
768.5000      	13012.3617    	2473.00000    
769.0000      	13003.9012    	2439.33325    
769.5000      	12995.4516    	2399.66675    
770.0000      	12987.0130    	2367.00000    
770.5000      	12978.5853    	2428.66675    
771.0000      	12970.1686    	2451.66675    
771.5000      	12961.7628    	2463.66675    
772.0000      	12953.3679    	2476.33325    
772.5000      	12944.9838    	2507.00000    
773.0000      	12936.6106    	2502.00000    
773.5000      	12928.2482    	2403.33325    
774.0000      	12919.8966    	2377.00000    
774.5000      	12911.5558    	2393.00000    
775.0000      	12903.2258    	2388.00000    
775.5000      	12894.9065    	2383.33325    
776.0000      	12886.5979    	2387.33325    
776.5000      	12878.3001    	2408.33325    
777.0000      	12870.0129    	2433.66675    
777.5000      	12861.7363    	2514.66675    
778.0000      	12853.4704    	2550.66675    
778.5000      	12845.2152    	2538.33325    
779.0000      	12836.9705    	2460.66675    
779.5000      	12828.7364    	2441.33325    
780.0000      	12820.5128    	2425.66675    
780.5000      	12812.2998    	2413.00000    
781.0000      	12804.0973    	2373.33325    
781.5000      	12795.9053    	2429.00000    
782.0000      	12787.7238    	2489.00000    
782.5000      	12779.5527    	2503.66675    
783.0000      	12771.3921    	2456.33325    
783.5000      	12763.2419    	2443.33325    
784.0000      	12755.1020    	2443.00000    
784.5000      	12746.9726    	2444.00000    
785.0000      	12738.8535    	2409.33325    
785.5000      	12730.7447    	2335.33325    
786.0000      	12722.6463    	2348.66675    
786.5000      	12714.5582    	2404.33325    
787.0000      	12706.4803    	2475.66675    
787.5000      	12698.4127    	2499.66675    
788.0000      	12690.3553    	2494.33325    
788.5000      	12682.3082    	2477.33325    
789.0000      	12674.2712    	2433.66675    
789.5000      	12666.2445    	2377.33325    
790.0000      	12658.2278    	2353.00000    
790.5000      	12650.2214    	2368.66675    
791.0000      	12642.2250    	2365.33325    
791.5000      	12634.2388    	2477.66675    
792.0000      	12626.2626    	2495.33325    
792.5000      	12618.2965    	2484.00000    
793.0000      	12610.3405    	2433.66675    
793.5000      	12602.3945    	2467.66675    
794.0000      	12594.4584    	2484.00000    
794.5000      	12586.5324    	2431.66675    
795.0000      	12578.6164    	2364.33325    
795.5000      	12570.7102    	2359.66675    
796.0000      	12562.8141    	2383.66675    
796.5000      	12554.9278    	2443.00000    
797.0000      	12547.0514    	2488.66675    
797.5000      	12539.1850    	2537.66675    
798.0000      	12531.3283    	2538.66675    
798.5000      	12523.4815    	2534.33325    
799.0000      	12515.6446    	2521.00000    
799.5000      	12507.8174    	2480.00000    
800.0000      	12500.0000    	2427.66675    
800.5000      	12492.1924    	2397.33325    
801.0000      	12484.3945    	2416.66675    
801.5000      	12476.6064    	2430.33325    
802.0000      	12468.8279    	2431.33325    
802.5000      	12461.0592    	2437.66675    
803.0000      	12453.3001    	2451.66675    
803.5000      	12445.5507    	2527.00000    
804.0000      	12437.8109    	2506.00000    
804.5000      	12430.0808    	2457.66675    
805.0000      	12422.3602    	2436.00000    
805.5000      	12414.6493    	2418.66675    
806.0000      	12406.9479    	2429.00000    
806.5000      	12399.2560    	2439.00000    
807.0000      	12391.5737    	2458.33325    
807.5000      	12383.9009    	2525.33325    
808.0000      	12376.2376    	2608.66675    
808.5000      	12368.5838    	2670.00000    
809.0000      	12360.9394    	2733.00000    
809.5000      	12353.3045    	2809.00000    
810.0000      	12345.6790    	2857.66675    
810.5000      	12338.0629    	2933.33325    
811.0000      	12330.4562    	3020.66675    
811.5000      	12322.8589    	3098.33325    
812.0000      	12315.2709    	3154.33325    
812.5000      	12307.6923    	3265.33325    
813.0000      	12300.1230    	3363.33325    
813.5000      	12292.5630    	3450.66675    
814.0000      	12285.0123    	3529.00000    
814.5000      	12277.4708    	3591.00000    
815.0000      	12269.9387    	3642.33325    
815.5000      	12262.4157    	3675.00000    
816.0000      	12254.9020    	3682.33325    
816.5000      	12247.3974    	3679.00000    
817.0000      	12239.9021    	3689.33325    
817.5000      	12232.4159    	3689.33325    
818.0000      	12224.9389    	3679.66675    
818.5000      	12217.4710    	3681.33325    
819.0000      	12210.0122    	3710.33325    
819.5000      	12202.5625    	3690.00000    
820.0000      	12195.1220    	3622.33325    
820.5000      	12187.6904    	3509.66675    
821.0000      	12180.2680    	3389.33325    
821.5000      	12172.8545    	3287.33325    
822.0000      	12165.4501    	3269.00000    
822.5000      	12158.0547    	3241.33325    
823.0000      	12150.6683    	3199.33325    
823.5000      	12143.2908    	3135.00000    
824.0000      	12135.9223    	3066.00000    
824.5000      	12128.5628    	2944.66675    
825.0000      	12121.2121    	2903.33325    
825.5000      	12113.8704    	2843.00000    
826.0000      	12106.5375    	2763.66675    
826.5000      	12099.2136    	2678.66675    
827.0000      	12091.8984    	2607.33325    
827.5000      	12084.5921    	2560.00000    
828.0000      	12077.2947    	2651.66675    
828.5000      	12070.0060    	2691.66675    
829.0000      	12062.7262    	2679.33325    
829.5000      	12055.4551    	2578.00000    
830.0000      	12048.1928    	2509.00000    
830.5000      	12040.9392    	2442.00000    
831.0000      	12033.6943    	2392.66675    
831.5000      	12026.4582    	2387.33325    
832.0000      	12019.2308    	2375.33325    
832.5000      	12012.0120    	2365.66675    
833.0000      	12004.8019    	2384.33325    
833.5000      	11997.6005    	2406.66675    
834.0000      	11990.4077    	2436.66675    
834.5000      	11983.2235    	2427.33325    
835.0000      	11976.0479    	2403.66675    
835.5000      	11968.8809    	2393.33325    
836.0000      	11961.7225    	2398.33325    
836.5000      	11954.5726    	2411.66675    
837.0000      	11947.4313    	2408.66675    
837.5000      	11940.2985    	2410.00000    
838.0000      	11933.1742    	2429.00000    
838.5000      	11926.0584    	2450.00000    
839.0000      	11918.9511    	2454.33325    
839.5000      	11911.8523    	2455.00000    
840.0000      	11904.7619    	2403.00000    
840.5000      	11897.6800    	2369.33325    
841.0000      	11890.6064    	2382.00000    
841.5000      	11883.5413    	2412.00000    
842.0000      	11876.4846    	2423.00000    
842.5000      	11869.4362    	2445.33325    
843.0000      	11862.3962    	2443.33325    
843.5000      	11855.3646    	2423.33325    
844.0000      	11848.3412    	2442.00000    
844.5000      	11841.3262    	2455.66675    
845.0000      	11834.3195    	2454.66675    
845.5000      	11827.3211    	2442.00000    
846.0000      	11820.3310    	2439.66675    
846.5000      	11813.3491    	2424.00000    
847.0000      	11806.3754    	2401.33325    
847.5000      	11799.4100    	2388.66675    
848.0000      	11792.4528    	2390.00000    
848.5000      	11785.5038    	2420.33325    
849.0000      	11778.5630    	2451.00000    
849.5000      	11771.6304    	2449.00000    
850.0000      	11764.7059    	2445.00000    
850.5000      	11757.7895    	2451.33325    
851.0000      	11750.8813    	2449.00000    
851.5000      	11743.9812    	2455.33325    
852.0000      	11737.0892    	2441.00000    
852.5000      	11730.2053    	2393.33325    
853.0000      	11723.3294    	2419.33325    
853.5000      	11716.4616    	2447.33325    
854.0000      	11709.6019    	2473.33325    
854.5000      	11702.7501    	2461.66675    
855.0000      	11695.9064    	2475.33325    
855.5000      	11689.0707    	2546.33325    
856.0000      	11682.2430    	2533.66675    
856.5000      	11675.4232    	2468.66675    
857.0000      	11668.6114    	2415.33325    
857.5000      	11661.8076    	2402.66675    
858.0000      	11655.0117    	2398.00000    
858.5000      	11648.2236    	2388.66675    
859.0000      	11641.4435    	2415.00000    
859.5000      	11634.6713    	2442.33325    
860.0000      	11627.9070    	2496.66675    
860.5000      	11621.1505    	2518.00000    
861.0000      	11614.4019    	2516.33325    
861.5000      	11607.6611    	2453.66675    
862.0000      	11600.9281    	2326.33325    
862.5000      	11594.2029    	2326.00000    
863.0000      	11587.4855    	2342.66675    
863.5000      	11580.7759    	2365.00000    
864.0000      	11574.0741    	2419.00000    
864.5000      	11567.3800    	2462.66675    
865.0000      	11560.6936    	2472.33325    
865.5000      	11554.0150    	2475.66675    
866.0000      	11547.3441    	2474.66675    
866.5000      	11540.6809    	2459.00000    
867.0000      	11534.0254    	2413.00000    
867.5000      	11527.3775    	2384.33325    
868.0000      	11520.7373    	2367.33325    
868.5000      	11514.1048    	2418.66675    
869.0000      	11507.4799    	2461.00000    
869.5000      	11500.8626    	2485.33325    
870.0000      	11494.2529    	2483.66675    
870.5000      	11487.6508    	2472.66675    
871.0000      	11481.0563    	2481.66675    
871.5000      	11474.4693    	2493.33325    
872.0000      	11467.8899    	2477.66675    
872.5000      	11461.3181    	2462.00000    
873.0000      	11454.7537    	2427.66675    
873.5000      	11448.1969    	2398.33325    
874.0000      	11441.6476    	2417.33325    
874.5000      	11435.1058    	2500.33325    
875.0000      	11428.5714    	2503.33325    
875.5000      	11422.0445    	2479.33325    
876.0000      	11415.5251    	2498.00000    
876.5000      	11409.0131    	2513.33325    
877.0000      	11402.5086    	2459.00000    
877.5000      	11396.0114    	2399.33325    
878.0000      	11389.5216    	2374.33325    
878.5000      	11383.0393    	2393.66675    
879.0000      	11376.5643    	2415.00000    
879.5000      	11370.0966    	2445.66675    
880.0000      	11363.6364    	2475.33325    
880.5000      	11357.1834    	2493.00000    
881.0000      	11350.7378    	2521.33325    
881.5000      	11344.2995    	2529.00000    
882.0000      	11337.8685    	2524.00000    
882.5000      	11331.4448    	2495.33325    
883.0000      	11325.0283    	2458.00000    
883.5000      	11318.6191    	2407.33325    
884.0000      	11312.2172    	2322.33325    
884.5000      	11305.8225    	2321.66675    
885.0000      	11299.4350    	2342.00000    
885.5000      	11293.0548    	2380.66675    
886.0000      	11286.6817    	2417.66675    
886.5000      	11280.3158    	2450.66675    
887.0000      	11273.9572    	2442.33325    
887.5000      	11267.6056    	2417.33325    
888.0000      	11261.2613    	2419.66675    
888.5000      	11254.9240    	2412.66675    
889.0000      	11248.5939    	2384.00000    
889.5000      	11242.2709    	2386.66675    
890.0000      	11235.9551    	2392.33325    
890.5000      	11229.6463    	2475.33325    
891.0000      	11223.3446    	2502.33325    
891.5000      	11217.0499    	2527.00000    
892.0000      	11210.7623    	2504.66675    
892.5000      	11204.4818    	2496.66675    
893.0000      	11198.2083    	2456.66675    
893.5000      	11191.9418    	2391.66675    
894.0000      	11185.6823    	2317.00000    
894.5000      	11179.4298    	2342.33325    
895.0000      	11173.1844    	2369.00000    
895.5000      	11166.9458    	2380.33325    
896.0000      	11160.7143    	2400.33325    
896.5000      	11154.4897    	2434.33325    
897.0000      	11148.2720    	2426.66675    
897.5000      	11142.0613    	2410.00000    
898.0000      	11135.8575    	2390.33325    
898.5000      	11129.6605    	2382.33325    
899.0000      	11123.4705    	2392.66675    
899.5000      	11117.2874    	2404.66675    
900.0000      	11111.1111    	2406.00000    
900.5000      	11104.9417    	2433.33325    
901.0000      	11098.7791    	2469.00000    
901.5000      	11092.6234    	2487.66675    
902.0000      	11086.4745    	2490.33325    
902.5000      	11080.3324    	2498.66675    
903.0000      	11074.1971    	2502.66675    
903.5000      	11068.0686    	2441.33325    
904.0000      	11061.9469    	2395.66675    
904.5000      	11055.8320    	2378.33325    
905.0000      	11049.7238    	2389.00000    
905.5000      	11043.6223    	2408.33325    
906.0000      	11037.5276    	2431.66675    
906.5000      	11031.4396    	2475.66675    
907.0000      	11025.3583    	2495.00000    
907.5000      	11019.2837    	2496.00000    
908.0000      	11013.2159    	2496.66675    
908.5000      	11007.1547    	2486.00000    
909.0000      	11001.1001    	2476.66675    
909.5000      	10995.0522    	2463.00000    
910.0000      	10989.0110    	2396.66675    
910.5000      	10982.9764    	2391.66675    
911.0000      	10976.9484    	2407.66675    
911.5000      	10970.9270    	2448.00000    
912.0000      	10964.9123    	2468.00000    
912.5000      	10958.9041    	2484.33325    
913.0000      	10952.9025    	2611.33325    
913.5000      	10946.9075    	2646.33325    
914.0000      	10940.9190    	2626.00000    
914.5000      	10934.9371    	2456.66675    
915.0000      	10928.9617    	2379.33325    
915.5000      	10922.9929    	2383.66675    
916.0000      	10917.0306    	2409.66675    
916.5000      	10911.0747    	2457.33325    
917.0000      	10905.1254    	2495.66675    
917.5000      	10899.1826    	2518.33325    
918.0000      	10893.2462    	2507.00000    
918.5000      	10887.3163    	2479.00000    
919.0000      	10881.3928    	2437.66675    
919.5000      	10875.4758    	2393.33325    
920.0000      	10869.5652    	2373.66675    
920.5000      	10863.6611    	2378.66675    
921.0000      	10857.7633    	2411.33325    
921.5000      	10851.8719    	2475.66675    
922.0000      	10845.9870    	2517.00000    
922.5000      	10840.1084    	2510.33325    
923.0000      	10834.2362    	2507.33325    
923.5000      	10828.3703    	2498.66675    
924.0000      	10822.5108    	2455.66675    
924.5000      	10816.6577    	2424.00000    
925.0000      	10810.8108    	2408.33325    
925.5000      	10804.9703    	2397.33325    
926.0000      	10799.1361    	2405.33325    
926.5000      	10793.3081    	2485.33325    
927.0000      	10787.4865    	2495.00000    
927.5000      	10781.6712    	2492.66675    
928.0000      	10775.8621    	2495.00000    
928.5000      	10770.0592    	2495.00000    
929.0000      	10764.2626    	2455.66675    
929.5000      	10758.4723    	2384.33325    
930.0000      	10752.6882    	2377.33325    
930.5000      	10746.9103    	2396.00000    
931.0000      	10741.1386    	2426.33325    
931.5000      	10735.3731    	2466.33325    
932.0000      	10729.6137    	2477.33325    
932.5000      	10723.8606    	2469.00000    
933.0000      	10718.1136    	2489.33325    
933.5000      	10712.3728    	2505.66675    
934.0000      	10706.6381    	2496.33325    
934.5000      	10700.9096    	2451.00000    
935.0000      	10695.1872    	2413.33325    
935.5000      	10689.4709    	2383.33325    
936.0000      	10683.7607    	2410.33325    
936.5000      	10678.0566    	2436.00000    
937.0000      	10672.3586    	2462.33325    
937.5000      	10666.6667    	2462.00000    
938.0000      	10660.9808    	2481.66675    
938.5000      	10655.3010    	2481.33325    
939.0000      	10649.6273    	2478.00000    
939.5000      	10643.9596    	2407.33325    
940.0000      	10638.2979    	2376.00000    
940.5000      	10632.6422    	2366.33325    
941.0000      	10626.9926    	2352.66675    
941.5000      	10621.3489    	2369.66675    
942.0000      	10615.7113    	2392.00000    
942.5000      	10610.0796    	2543.00000    
943.0000      	10604.4539    	2568.00000    
943.5000      	10598.8341    	2522.00000    
944.0000      	10593.2203    	2494.33325    
944.5000      	10587.6125    	2458.33325    
945.0000      	10582.0106    	2435.66675    
945.5000      	10576.4146    	2410.66675    
946.0000      	10570.8245    	2377.66675    
946.5000      	10565.2404    	2373.66675    
947.0000      	10559.6621    	2386.66675    
947.5000      	10554.0897    	2400.66675    
948.0000      	10548.5232    	2430.00000    
948.5000      	10542.9626    	2477.33325    
949.0000      	10537.4078    	2520.66675    
949.5000      	10531.8589    	2518.33325    
950.0000      	10526.3158    	2470.00000    
950.5000      	10520.7785    	2442.33325    
951.0000      	10515.2471    	2405.66675    
951.5000      	10509.7215    	2403.66675    
952.0000      	10504.2017    	2428.66675    
952.5000      	10498.6877    	2535.66675    
953.0000      	10493.1794    	2526.33325    
953.5000      	10487.6770    	2515.66675    
954.0000      	10482.1803    	2521.00000    
954.5000      	10476.6894    	2534.66675    
955.0000      	10471.2042    	2499.66675    
955.5000      	10465.7248    	2471.33325    
956.0000      	10460.2510    	2436.33325    
956.5000      	10454.7831    	2436.33325    
957.0000      	10449.3208    	2456.00000    
957.5000      	10443.8642    	2477.00000    
958.0000      	10438.4134    	2480.66675    
958.5000      	10432.9682    	2475.66675    
959.0000      	10427.5287    	2458.33325    
959.5000      	10422.0948    	2439.33325    
960.0000      	10416.6667    	2428.33325    
960.5000      	10411.2441    	2420.00000    
961.0000      	10405.8273    	2430.33325    
961.5000      	10400.4160    	2429.00000    
962.0000      	10395.0104    	2425.66675    
962.5000      	10389.6104    	2407.66675    
963.0000      	10384.2160    	2430.33325    
963.5000      	10378.8272    	2443.33325    
964.0000      	10373.4440    	2471.00000    
964.5000      	10368.0664    	2468.33325    
965.0000      	10362.6943    	2451.66675    
965.5000      	10357.3278    	2430.00000    
966.0000      	10351.9669    	2350.66675    
966.5000      	10346.6115    	2342.66675    
967.0000      	10341.2616    	2376.33325    
967.5000      	10335.9173    	2414.33325    
968.0000      	10330.5785    	2450.33325    
968.5000      	10325.2452    	2461.66675    
969.0000      	10319.9174    	2451.33325    
969.5000      	10314.5952    	2457.66675    
970.0000      	10309.2784    	2471.33325    
970.5000      	10303.9670    	2455.00000    
971.0000      	10298.6612    	2440.00000    
971.5000      	10293.3608    	2426.66675    
972.0000      	10288.0658    	2421.33325    
972.5000      	10282.7763    	2408.66675    
973.0000      	10277.4923    	2426.66675    
973.5000      	10272.2137    	2428.00000    
974.0000      	10266.9405    	2449.33325    
974.5000      	10261.6727    	2487.33325    
975.0000      	10256.4103    	2505.66675    
975.5000      	10251.1533    	2509.00000    
976.0000      	10245.9016    	2454.33325    
976.5000      	10240.6554    	2450.00000    
977.0000      	10235.4145    	2453.33325    
977.5000      	10230.1790    	2452.66675    
978.0000      	10224.9489    	2441.33325    
978.5000      	10219.7241    	2449.33325    
979.0000      	10214.5046    	2464.33325    
979.5000      	10209.2905    	2459.66675    
980.0000      	10204.0816    	2470.33325    
980.5000      	10198.8781    	2482.66675    
981.0000      	10193.6799    	2483.33325    
981.5000      	10188.4870    	2467.00000    
982.0000      	10183.2994    	2450.00000    
982.5000      	10178.1170    	2436.33325    
983.0000      	10172.9400    	2437.66675    
983.5000      	10167.7682    	2484.00000    
984.0000      	10162.6016    	2503.66675    
984.5000      	10157.4403    	2525.00000    
985.0000      	10152.2843    	2518.33325    
985.5000      	10147.1334    	2558.00000    
986.0000      	10141.9878    	2530.66675    
986.5000      	10136.8474    	2484.00000    
987.0000      	10131.7123    	2460.00000    
987.5000      	10126.5823    	2442.00000    
988.0000      	10121.4575    	2423.00000    
988.5000      	10116.3379    	2429.33325    
989.0000      	10111.2235    	2483.33325    
989.5000      	10106.1142    	2480.33325    
990.0000      	10101.0101    	2451.33325    
990.5000      	10095.9112    	2457.33325    
991.0000      	10090.8174    	2477.00000    
991.5000      	10085.7287    	2479.66675    
992.0000      	10080.6452    	2463.00000    
992.5000      	10075.5668    	2404.66675    
993.0000      	10070.4935    	2362.00000    
993.5000      	10065.4253    	2345.66675    
994.0000      	10060.3622    	2389.33325    
994.5000      	10055.3042    	2454.66675    
995.0000      	10050.2513    	2507.33325    
995.5000      	10045.2034    	2503.00000    
996.0000      	10040.1606    	2499.66675    
996.5000      	10035.1229    	2483.00000    
997.0000      	10030.0903    	2456.33325    
997.5000      	10025.0627    	2423.66675    
998.0000      	10020.0401    	2415.66675    
998.5000      	10015.0225    	2396.66675    
999.0000      	10010.0100    	2386.33325    
999.5000      	10005.0025    	2420.66675    
1000.0000     	10000.0000    	2468.00000    
