Labels,Decay6,
Type,Time Scan,
Comment,,
Start,0.00,
Stop,199.958850,
Step,0.048830,
Fixed/Offset, ,
XAxis,Time,
YAxis,Counts,

0.00,0.000E+0,
0.048830,0.000E+0,
0.097660,1.000E+0,
0.146490,0.000E+0,
0.195320,0.000E+0,
0.244150,0.000E+0,
0.292980,1.000E+0,
0.341810,0.000E+0,
0.390640,1.000E+0,
0.439470,1.000E+0,
0.48830,0.000E+0,
0.537130,0.000E+0,
0.585960,0.000E+0,
0.634790,1.000E+0,
0.683620,1.000E+0,
0.732450,0.000E+0,
0.781280,1.000E+0,
0.830110,0.000E+0,
0.878940,0.000E+0,
0.927770,0.000E+0,
0.97660,0.000E+0,
1.025430,0.000E+0,
1.074260,1.000E+0,
1.123090,0.000E+0,
1.171920,2.000E+0,
1.220750,0.000E+0,
1.269580,0.000E+0,
1.318410,0.000E+0,
1.367240,1.000E+0,
1.416070,2.000E+0,
1.46490,1.000E+0,
1.513730,1.000E+0,
1.562560,0.000E+0,
1.611390,1.000E+0,
1.660220,1.000E+0,
1.709050,0.000E+0,
1.757880,0.000E+0,
1.806710,1.000E+0,
1.855540,2.000E+0,
1.904370,4.000E+0,
1.95320,0.000E+0,
2.002030,0.000E+0,
2.050860,0.000E+0,
2.099690,1.000E+0,
2.148520,2.000E+0,
2.197350,0.000E+0,
2.246180,2.000E+0,
2.295010,0.000E+0,
2.343840,1.000E+0,
2.392670,0.000E+0,
2.44150,0.000E+0,
2.490330,0.000E+0,
2.539160,0.000E+0,
2.587990,1.000E+0,
2.636820,4.000E+0,
2.685650,0.000E+0,
2.734480,2.000E+0,
2.783310,2.000E+0,
2.832140,0.000E+0,
2.880970,1.000E+0,
2.92980,1.000E+0,
2.978630,0.000E+0,
3.027460,0.000E+0,
3.076290,1.000E+0,
3.125120,0.000E+0,
3.173950,0.000E+0,
3.222780,1.000E+0,
3.271610,1.000E+0,
3.320440,3.000E+0,
3.369270,1.000E+0,
3.41810,0.000E+0,
3.466930,0.000E+0,
3.515760,1.000E+0,
3.564590,0.000E+0,
3.613420,1.000E+0,
3.662250,1.000E+0,
3.711080,1.000E+0,
3.759910,0.000E+0,
3.808740,0.000E+0,
3.857570,1.000E+0,
3.90640,1.000E+0,
3.955230,2.000E+0,
4.004060,2.000E+0,
4.052890,2.000E+0,
4.101720,2.000E+0,
4.150550,5.000E+0,
4.199380,4.000E+0,
4.248210,2.000E+0,
4.297040,0.000E+0,
4.345870,0.000E+0,
4.39470,4.000E+0,
4.443530,2.000E+0,
4.492360,2.000E+0,
4.541190,1.000E+0,
4.590020,0.000E+0,
4.638850,2.000E+0,
4.687680,0.000E+0,
4.736510,0.000E+0,
4.785340,0.000E+0,
4.834170,0.000E+0,
4.8830,0.000E+0,
4.931830,0.000E+0,
4.980660,0.000E+0,
5.029490,1.000E+0,
5.078320,0.000E+0,
5.127150,1.000E+0,
5.175980,0.000E+0,
5.224810,0.000E+0,
5.273640,0.000E+0,
5.322470,0.000E+0,
5.37130,0.000E+0,
5.420130,3.000E+0,
5.468960,3.000E+0,
5.517790,1.000E+0,
5.566620,2.000E+0,
5.615450,3.000E+0,
5.664280,3.000E+0,
5.713110,2.000E+0,
5.761940,0.000E+0,
5.810770,0.000E+0,
5.85960,1.000E+0,
5.908430,0.000E+0,
5.957260,1.000E+0,
6.006090,1.000E+0,
6.054920,0.000E+0,
6.103750,0.000E+0,
6.152580,1.000E+0,
6.201410,0.000E+0,
6.250240,0.000E+0,
6.299070,1.000E+0,
6.34790,1.000E+0,
6.396730,0.000E+0,
6.445560,0.000E+0,
6.494390,0.000E+0,
6.543220,0.000E+0,
6.592050,0.000E+0,
6.640880,0.000E+0,
6.689710,0.000E+0,
6.738540,1.000E+0,
6.787370,0.000E+0,
6.83620,2.000E+0,
6.885030,0.000E+0,
6.933860,1.000E+0,
6.982690,0.000E+0,
7.031520,1.000E+0,
7.080350,1.000E+0,
7.129180,0.000E+0,
7.178010,0.000E+0,
7.226840,4.000E+0,
7.275670,1.000E+0,
7.32450,6.000E+0,
7.373330,2.000E+0,
7.422160,2.000E+0,
7.470990,4.000E+0,
7.519820,2.000E+0,
7.568650,2.000E+0,
7.617480,1.000E+0,
7.666310,1.000E+0,
7.715140,1.000E+0,
7.763970,2.000E+0,
7.81280,1.000E+0,
7.861630,0.000E+0,
7.910460,0.000E+0,
7.959290,1.000E+0,
8.008120,0.000E+0,
8.056950,0.000E+0,
8.105780,0.000E+0,
8.154610,0.000E+0,
8.203440,0.000E+0,
8.252270,0.000E+0,
8.30110,0.000E+0,
8.349930,0.000E+0,
8.398760,0.000E+0,
8.447590,0.000E+0,
8.496420,0.000E+0,
8.545250,0.000E+0,
8.594080,0.000E+0,
8.642910,0.000E+0,
8.691740,0.000E+0,
8.740570,2.000E+0,
8.78940,2.000E+0,
8.838230,2.000E+0,
8.887060,3.000E+0,
8.935890,2.000E+0,
8.984720,3.000E+0,
9.033550,2.000E+0,
9.082380,1.000E+0,
9.131210,1.000E+0,
9.180040,1.000E+0,
9.228870,3.000E+0,
9.27770,0.000E+0,
9.326530,1.000E+0,
9.375360,0.000E+0,
9.424190,1.000E+0,
9.473020,1.000E+0,
9.521850,2.000E+0,
9.570680,1.000E+0,
9.619510,0.000E+0,
9.668340,1.000E+0,
9.717170,0.000E+0,
9.7660,2.000E+0,
9.814830,1.000E+0,
9.863660,1.000E+0,
9.912490,1.000E+0,
9.961320,0.000E+0,
10.010150,0.000E+0,
10.058980,0.000E+0,
10.107810,0.000E+0,
10.156640,0.000E+0,
10.205470,0.000E+0,
10.25430,0.000E+0,
10.303130,1.000E+0,
10.351960,1.000E+0,
10.400790,0.000E+0,
10.449620,2.000E+0,
10.498450,0.000E+0,
10.547280,1.000E+0,
10.596110,1.000E+0,
10.644940,2.000E+0,
10.693770,1.000E+0,
10.74260,0.000E+0,
10.791430,2.000E+0,
10.840260,0.000E+0,
10.889090,1.000E+0,
10.937920,0.000E+0,
10.986750,4.000E+0,
11.035580,0.000E+0,
11.084410,0.000E+0,
11.133240,2.000E+0,
11.182070,0.000E+0,
11.23090,0.000E+0,
11.279730,0.000E+0,
11.328560,1.000E+0,
11.377390,0.000E+0,
11.426220,1.000E+0,
11.475050,4.000E+0,
11.523880,4.000E+0,
11.572710,5.000E+0,
11.621540,8.000E+0,
11.670370,7.000E+0,
11.71920,1.200E+1,
11.768030,2.000E+1,
11.816860,3.100E+1,
11.865690,2.000E+1,
11.914520,2.100E+1,
11.963350,1.700E+1,
12.012180,1.400E+1,
12.061010,1.200E+1,
12.109840,9.000E+0,
12.158670,1.800E+1,
12.20750,1.500E+1,
12.256330,3.000E+1,
12.305160,5.400E+1,
12.353990,7.400E+1,
12.402820,1.360E+2,
12.451650,2.360E+2,
12.500480,3.650E+2,
12.549310,5.100E+2,
12.598140,7.510E+2,
12.646970,1.480E+3,
12.69580,2.944E+3,
12.744630,5.576E+3,
12.793460,8.542E+3,
12.842290,1.000E+4,
12.891120,9.046E+3,
12.939950,7.344E+3,
12.988780,5.438E+3,
13.037610,4.559E+3,
13.086440,4.165E+3,
13.135270,4.067E+3,
13.18410,3.776E+3,
13.232930,3.181E+3,
13.281760,2.536E+3,
13.330590,1.817E+3,
13.379420,1.536E+3,
13.428250,1.238E+3,
13.477080,1.146E+3,
13.525910,9.450E+2,
13.574740,8.330E+2,
13.623570,7.150E+2,
13.67240,6.640E+2,
13.721230,5.630E+2,
13.770060,4.880E+2,
13.818890,4.420E+2,
13.867720,4.130E+2,
13.916550,3.370E+2,
13.965380,2.400E+2,
14.014210,2.390E+2,
14.063040,1.850E+2,
14.111870,1.590E+2,
14.16070,1.620E+2,
14.209530,1.130E+2,
14.258360,9.600E+1,
14.307190,8.300E+1,
14.356020,5.000E+1,
14.404850,7.200E+1,
14.453680,6.000E+1,
14.502510,4.900E+1,
14.551340,3.900E+1,
14.600170,3.000E+1,
14.6490,3.700E+1,
14.697830,3.500E+1,
14.746660,2.700E+1,
14.795490,1.700E+1,
14.844320,2.300E+1,
14.893150,1.800E+1,
14.941980,2.400E+1,
14.990810,1.600E+1,
15.039640,1.300E+1,
15.088470,7.000E+0,
15.13730,1.000E+1,
15.186130,1.200E+1,
15.234960,1.500E+1,
15.283790,1.000E+1,
15.332620,5.000E+0,
15.381450,1.100E+1,
15.430280,4.000E+0,
15.479110,1.000E+0,
15.527940,9.000E+0,
15.576770,5.000E+0,
15.62560,4.000E+0,
15.674430,7.000E+0,
15.723260,8.000E+0,
15.772090,3.000E+0,
15.820920,8.000E+0,
15.869750,2.000E+0,
15.918580,6.000E+0,
15.967410,4.000E+0,
16.016240,6.000E+0,
16.065070,5.000E+0,
16.11390,6.000E+0,
16.162730,4.000E+0,
16.211560,6.000E+0,
16.260390,4.000E+0,
16.309220,7.000E+0,
16.358050,7.000E+0,
16.406880,1.000E+0,
16.455710,5.000E+0,
16.504540,4.000E+0,
16.553370,3.000E+0,
16.60220,7.000E+0,
16.651030,7.000E+0,
16.699860,2.000E+0,
16.748690,5.000E+0,
16.797520,6.000E+0,
16.846350,8.000E+0,
16.895180,3.000E+0,
16.944010,3.000E+0,
16.992840,5.000E+0,
17.041670,6.000E+0,
17.09050,3.000E+0,
17.139330,3.000E+0,
17.188160,1.000E+0,
17.236990,1.000E+0,
17.285820,2.000E+0,
17.334650,2.000E+0,
17.383480,1.000E+0,
17.432310,2.000E+0,
17.481140,2.000E+0,
17.529970,2.000E+0,
17.57880,4.000E+0,
17.627630,3.000E+0,
17.676460,1.000E+0,
17.725290,2.000E+0,
17.774120,4.000E+0,
17.822950,3.000E+0,
17.871780,1.000E+0,
17.920610,2.000E+0,
17.969440,3.000E+0,
18.018270,4.000E+0,
18.06710,1.000E+0,
18.115930,3.000E+0,
18.164760,2.000E+0,
18.213590,0.000E+0,
18.262420,3.000E+0,
18.311250,1.000E+0,
18.360080,2.000E+0,
18.408910,2.000E+0,
18.457740,0.000E+0,
18.506570,0.000E+0,
18.55540,3.000E+0,
18.604230,3.000E+0,
18.653060,0.000E+0,
18.701890,4.000E+0,
18.750720,3.000E+0,
18.799550,3.000E+0,
18.848380,4.000E+0,
18.897210,1.000E+0,
18.946040,0.000E+0,
18.994870,2.000E+0,
19.04370,4.000E+0,
19.092530,2.000E+0,
19.141360,1.000E+0,
19.190190,2.000E+0,
19.239020,2.000E+0,
19.287850,5.000E+0,
19.336680,6.000E+0,
19.385510,0.000E+0,
19.434340,0.000E+0,
19.483170,1.000E+0,
19.5320,3.000E+0,
19.580830,4.000E+0,
19.629660,0.000E+0,
19.678490,3.000E+0,
19.727320,2.000E+0,
19.776150,1.000E+0,
19.824980,4.000E+0,
19.873810,3.000E+0,
19.922640,0.000E+0,
19.971470,4.000E+0,
20.02030,4.000E+0,
20.069130,3.000E+0,
20.117960,2.000E+0,
20.166790,3.000E+0,
20.215620,4.000E+0,
20.264450,1.000E+0,
20.313280,1.000E+0,
20.362110,1.000E+0,
20.410940,3.000E+0,
20.459770,0.000E+0,
20.50860,0.000E+0,
20.557430,2.000E+0,
20.606260,0.000E+0,
20.655090,2.000E+0,
20.703920,1.000E+0,
20.752749,1.000E+0,
20.801579,4.000E+0,
20.850409,1.000E+0,
20.899239,2.000E+0,
20.948069,2.000E+0,
20.99690,2.000E+0,
21.045729,0.000E+0,
21.094559,0.000E+0,
21.143389,2.000E+0,
21.192219,1.000E+0,
21.241049,1.000E+0,
21.289879,2.000E+0,
21.338709,2.000E+0,
21.387539,4.000E+0,
21.436369,3.000E+0,
21.48520,2.000E+0,
21.534029,3.000E+0,
21.582859,3.000E+0,
21.631689,0.000E+0,
21.680519,1.000E+0,
21.729349,2.000E+0,
21.778179,1.000E+0,
21.827009,0.000E+0,
21.875839,1.000E+0,
21.924669,2.000E+0,
21.97350,4.000E+0,
22.022329,2.000E+0,
22.071159,2.000E+0,
22.119989,1.000E+0,
22.168819,1.000E+0,
22.217649,2.000E+0,
22.266479,0.000E+0,
22.315309,2.000E+0,
22.364139,2.000E+0,
22.412969,2.000E+0,
22.46180,1.000E+0,
22.510629,1.000E+0,
22.559459,2.000E+0,
22.608289,1.000E+0,
22.657119,1.000E+0,
22.705949,1.000E+0,
22.754779,1.000E+0,
22.803609,0.000E+0,
22.852439,1.000E+0,
22.901269,0.000E+0,
22.95010,1.000E+0,
22.998929,4.000E+0,
23.047759,1.000E+0,
23.096589,1.000E+0,
23.145419,1.000E+0,
23.194249,3.000E+0,
23.243079,5.000E+0,
23.291909,3.000E+0,
23.340739,5.000E+0,
23.389569,2.000E+0,
23.43840,2.000E+0,
23.487229,7.000E+0,
23.536059,0.000E+0,
23.584889,3.000E+0,
23.633719,3.000E+0,
23.682549,3.000E+0,
23.731379,0.000E+0,
23.780209,0.000E+0,
23.829039,1.000E+0,
23.877869,0.000E+0,
23.92670,0.000E+0,
23.975529,3.000E+0,
24.024359,3.000E+0,
24.073189,0.000E+0,
24.122019,0.000E+0,
24.170849,2.000E+0,
24.219679,2.000E+0,
24.268509,1.000E+0,
24.317339,3.000E+0,
24.366169,0.000E+0,
24.4150,1.000E+0,
24.463829,0.000E+0,
24.512659,0.000E+0,
24.561489,0.000E+0,
24.610319,0.000E+0,
24.659149,1.000E+0,
24.707979,1.000E+0,
24.756809,2.000E+0,
24.805639,2.000E+0,
24.854469,0.000E+0,
24.90330,0.000E+0,
24.952129,2.000E+0,
25.000959,1.000E+0,
25.049789,1.000E+0,
25.098619,2.000E+0,
25.147449,0.000E+0,
25.196279,1.000E+0,
25.245109,1.000E+0,
25.293939,1.000E+0,
25.342769,1.000E+0,
25.39160,2.000E+0,
25.440429,1.000E+0,
25.489259,2.000E+0,
25.538089,1.000E+0,
25.586919,3.000E+0,
25.635749,1.000E+0,
25.684579,1.000E+0,
25.733409,1.000E+0,
25.782239,2.000E+0,
25.831069,3.000E+0,
25.87990,3.000E+0,
25.928729,2.000E+0,
25.977559,2.000E+0,
26.026389,2.000E+0,
26.075219,0.000E+0,
26.124049,1.000E+0,
26.172879,1.000E+0,
26.221709,1.000E+0,
26.270539,1.000E+0,
26.319369,0.000E+0,
26.36820,1.000E+0,
26.417029,1.000E+0,
26.465859,1.000E+0,
26.514689,0.000E+0,
26.563519,2.000E+0,
26.612349,1.000E+0,
26.661179,0.000E+0,
26.710009,4.000E+0,
26.758839,1.000E+0,
26.807669,0.000E+0,
26.85650,2.000E+0,
26.905329,1.000E+0,
26.954159,4.000E+0,
27.002989,0.000E+0,
27.051819,1.000E+0,
27.100649,2.000E+0,
27.149479,1.000E+0,
27.198309,2.000E+0,
27.247139,3.000E+0,
27.295969,0.000E+0,
27.34480,1.000E+0,
27.393629,1.000E+0,
27.442459,0.000E+0,
27.491289,0.000E+0,
27.540119,2.000E+0,
27.588949,1.000E+0,
27.637779,1.000E+0,
27.686609,1.000E+0,
27.735439,1.000E+0,
27.784269,4.000E+0,
27.83310,1.000E+0,
27.881929,1.000E+0,
27.930759,0.000E+0,
27.979589,1.000E+0,
28.028419,1.000E+0,
28.077249,4.000E+0,
28.126079,2.000E+0,
28.174909,1.000E+0,
28.223739,0.000E+0,
28.272569,1.000E+0,
28.32140,0.000E+0,
28.370229,1.000E+0,
28.419059,1.000E+0,
28.467889,3.000E+0,
28.516719,0.000E+0,
28.565549,1.000E+0,
28.614379,0.000E+0,
28.663209,1.000E+0,
28.712039,0.000E+0,
28.760869,0.000E+0,
28.80970,1.000E+0,
28.858529,0.000E+0,
28.907359,0.000E+0,
28.956189,1.000E+0,
29.005019,0.000E+0,
29.053849,0.000E+0,
29.102679,1.000E+0,
29.151509,1.000E+0,
29.200339,2.000E+0,
29.249169,2.000E+0,
29.2980,0.000E+0,
29.346829,0.000E+0,
29.395659,0.000E+0,
29.444489,0.000E+0,
29.493319,0.000E+0,
29.542149,2.000E+0,
29.590979,1.000E+0,
29.639809,0.000E+0,
29.688639,0.000E+0,
29.737469,2.000E+0,
29.78630,2.000E+0,
29.835129,0.000E+0,
29.883959,1.000E+0,
29.932789,1.000E+0,
29.981619,0.000E+0,
30.030449,2.000E+0,
30.079279,4.000E+0,
30.128109,1.000E+0,
30.176939,2.000E+0,
30.225769,1.000E+0,
30.27460,1.000E+0,
30.323429,0.000E+0,
30.372259,1.000E+0,
30.421089,1.000E+0,
30.469919,2.000E+0,
30.518749,1.000E+0,
30.567579,0.000E+0,
30.616409,0.000E+0,
30.665239,0.000E+0,
30.714069,0.000E+0,
30.76290,0.000E+0,
30.811729,1.000E+0,
30.860559,3.000E+0,
30.909389,2.000E+0,
30.958219,2.000E+0,
31.007049,0.000E+0,
31.055879,2.000E+0,
31.104709,1.000E+0,
31.153539,0.000E+0,
31.202369,1.000E+0,
31.25120,2.000E+0,
31.300029,2.000E+0,
31.348859,1.000E+0,
31.397689,2.000E+0,
31.446519,1.000E+0,
31.495349,0.000E+0,
31.544179,0.000E+0,
31.593009,3.000E+0,
31.641839,2.000E+0,
31.690669,0.000E+0,
31.73950,1.000E+0,
31.788329,1.000E+0,
31.837159,0.000E+0,
31.885989,1.000E+0,
31.934819,0.000E+0,
31.983649,1.000E+0,
32.032479,0.000E+0,
32.081309,0.000E+0,
32.130139,0.000E+0,
32.178969,1.000E+0,
32.22780,2.000E+0,
32.276629,0.000E+0,
32.325459,1.000E+0,
32.374289,0.000E+0,
32.423119,1.000E+0,
32.471949,0.000E+0,
32.520779,0.000E+0,
32.569609,0.000E+0,
32.618439,0.000E+0,
32.667269,1.000E+0,
32.71610,0.000E+0,
32.764929,0.000E+0,
32.813759,0.000E+0,
32.862589,1.000E+0,
32.911419,1.000E+0,
32.960249,1.000E+0,
33.009079,0.000E+0,
33.057909,2.000E+0,
33.106739,0.000E+0,
33.155569,0.000E+0,
33.20440,2.000E+0,
33.253229,1.000E+0,
33.302059,1.000E+0,
33.350889,0.000E+0,
33.399719,0.000E+0,
33.448549,2.000E+0,
33.497379,0.000E+0,
33.546209,0.000E+0,
33.595039,1.000E+0,
33.643869,0.000E+0,
33.69270,1.000E+0,
33.741529,0.000E+0,
33.790359,1.000E+0,
33.839189,1.000E+0,
33.888019,1.000E+0,
33.936849,1.000E+0,
33.985679,3.000E+0,
34.034509,0.000E+0,
34.083339,0.000E+0,
34.132169,1.000E+0,
34.1810,1.000E+0,
34.229829,0.000E+0,
34.278659,0.000E+0,
34.327489,0.000E+0,
34.376319,2.000E+0,
34.425149,3.000E+0,
34.473979,0.000E+0,
34.522809,0.000E+0,
34.571639,1.000E+0,
34.620469,0.000E+0,
34.66930,0.000E+0,
34.718129,1.000E+0,
34.766959,0.000E+0,
34.815789,1.000E+0,
34.864619,1.000E+0,
34.913449,0.000E+0,
34.962279,0.000E+0,
35.011109,0.000E+0,
35.059939,3.000E+0,
35.108769,0.000E+0,
35.15760,2.000E+0,
35.206429,1.000E+0,
35.255259,1.000E+0,
35.304089,0.000E+0,
35.352919,1.000E+0,
35.401749,2.000E+0,
35.450579,0.000E+0,
35.499409,2.000E+0,
35.548239,0.000E+0,
35.597069,0.000E+0,
35.64590,2.000E+0,
35.694729,2.000E+0,
35.743559,0.000E+0,
35.792389,0.000E+0,
35.841219,1.000E+0,
35.890049,0.000E+0,
35.938879,0.000E+0,
35.987709,0.000E+0,
36.036539,0.000E+0,
36.085369,0.000E+0,
36.13420,0.000E+0,
36.183029,0.000E+0,
36.231859,1.000E+0,
36.280689,0.000E+0,
36.329519,0.000E+0,
36.378349,1.000E+0,
36.427179,0.000E+0,
36.476009,0.000E+0,
36.524839,0.000E+0,
36.573669,2.000E+0,
36.62250,0.000E+0,
36.671329,0.000E+0,
36.720159,0.000E+0,
36.768989,0.000E+0,
36.817819,1.000E+0,
36.866649,0.000E+0,
36.915479,0.000E+0,
36.964309,1.000E+0,
37.013139,1.000E+0,
37.061969,0.000E+0,
37.11080,0.000E+0,
37.159629,1.000E+0,
37.208459,2.000E+0,
37.257289,0.000E+0,
37.306119,1.000E+0,
37.354949,0.000E+0,
37.403779,1.000E+0,
37.452609,1.000E+0,
37.501439,1.000E+0,
37.550269,0.000E+0,
37.59910,0.000E+0,
37.647929,0.000E+0,
37.696759,1.000E+0,
37.745589,0.000E+0,
37.794419,0.000E+0,
37.843249,1.000E+0,
37.892079,0.000E+0,
37.940909,0.000E+0,
37.989739,0.000E+0,
38.038569,0.000E+0,
38.08740,0.000E+0,
38.136229,0.000E+0,
38.185059,0.000E+0,
38.233889,3.000E+0,
38.282719,0.000E+0,
38.331549,2.000E+0,
38.380379,1.000E+0,
38.429209,0.000E+0,
38.478039,1.000E+0,
38.526869,1.000E+0,
38.57570,2.000E+0,
38.624529,0.000E+0,
38.673359,1.000E+0,
38.722189,2.000E+0,
38.771019,1.000E+0,
38.819849,0.000E+0,
38.868679,1.000E+0,
38.917509,2.000E+0,
38.966339,0.000E+0,
39.015169,0.000E+0,
39.0640,1.000E+0,
39.112829,2.000E+0,
39.161659,0.000E+0,
39.210489,1.000E+0,
39.259319,0.000E+0,
39.308149,0.000E+0,
39.356979,0.000E+0,
39.405809,0.000E+0,
39.454639,0.000E+0,
39.503469,0.000E+0,
39.55230,1.000E+0,
39.601129,1.000E+0,
39.649959,0.000E+0,
39.698789,1.000E+0,
39.747619,0.000E+0,
39.796449,1.000E+0,
39.845279,0.000E+0,
39.894109,1.000E+0,
39.942939,0.000E+0,
39.991769,1.000E+0,
40.04060,0.000E+0,
40.089429,1.000E+0,
40.138259,0.000E+0,
40.187089,0.000E+0,
40.235919,2.000E+0,
40.284749,1.000E+0,
40.333579,3.000E+0,
40.382409,1.000E+0,
40.431239,2.000E+0,
40.480069,0.000E+0,
40.52890,1.000E+0,
40.577729,0.000E+0,
40.626559,1.000E+0,
40.675389,0.000E+0,
40.724219,0.000E+0,
40.773049,2.000E+0,
40.821879,0.000E+0,
40.870709,1.000E+0,
40.919539,1.000E+0,
40.968369,0.000E+0,
41.01720,1.000E+0,
41.066029,1.000E+0,
41.114859,1.000E+0,
41.163689,1.000E+0,
41.212519,0.000E+0,
41.261349,1.000E+0,
41.310179,0.000E+0,
41.359009,1.000E+0,
41.407839,0.000E+0,
41.456669,0.000E+0,
41.50550,0.000E+0,
41.554329,0.000E+0,
41.603159,1.000E+0,
41.651989,0.000E+0,
41.700819,0.000E+0,
41.749649,0.000E+0,
41.798479,0.000E+0,
41.847309,1.000E+0,
41.896139,1.000E+0,
41.944969,0.000E+0,
41.99380,0.000E+0,
42.042629,0.000E+0,
42.091459,0.000E+0,
42.140289,0.000E+0,
42.189119,0.000E+0,
42.237949,0.000E+0,
42.286779,0.000E+0,
42.335609,1.000E+0,
42.384439,1.000E+0,
42.433269,0.000E+0,
42.48210,0.000E+0,
42.530929,0.000E+0,
42.579759,1.000E+0,
42.628589,0.000E+0,
42.677419,1.000E+0,
42.726249,0.000E+0,
42.775079,0.000E+0,
42.823909,0.000E+0,
42.872739,0.000E+0,
42.921569,0.000E+0,
42.97040,0.000E+0,
43.019229,0.000E+0,
43.068059,0.000E+0,
43.116889,0.000E+0,
43.165719,0.000E+0,
43.214549,0.000E+0,
43.263379,0.000E+0,
43.312209,0.000E+0,
43.361039,1.000E+0,
43.409869,0.000E+0,
43.45870,0.000E+0,
43.507529,0.000E+0,
43.556359,2.000E+0,
43.605189,1.000E+0,
43.654019,0.000E+0,
43.702849,1.000E+0,
43.751679,1.000E+0,
43.800509,1.000E+0,
43.849339,1.000E+0,
43.898169,1.000E+0,
43.9470,3.000E+0,
43.995829,3.000E+0,
44.044659,0.000E+0,
44.093489,1.000E+0,
44.142319,2.000E+0,
44.191149,1.000E+0,
44.239979,1.000E+0,
44.288809,0.000E+0,
44.337639,0.000E+0,
44.386469,1.000E+0,
44.43530,1.000E+0,
44.484129,2.000E+0,
44.532959,0.000E+0,
44.581789,1.000E+0,
44.630619,0.000E+0,
44.679449,0.000E+0,
44.728279,0.000E+0,
44.777109,0.000E+0,
44.825939,1.000E+0,
44.874769,1.000E+0,
44.92360,1.000E+0,
44.972429,2.000E+0,
45.021259,2.000E+0,
45.070089,1.000E+0,
45.118919,0.000E+0,
45.167749,1.000E+0,
45.216579,0.000E+0,
45.265409,1.000E+0,
45.314239,0.000E+0,
45.363069,0.000E+0,
45.41190,0.000E+0,
45.460729,1.000E+0,
45.509559,1.000E+0,
45.558389,1.000E+0,
45.607219,1.000E+0,
45.656049,0.000E+0,
45.704879,0.000E+0,
45.753709,0.000E+0,
45.802539,2.000E+0,
45.851369,0.000E+0,
45.90020,0.000E+0,
45.949029,1.000E+0,
45.997859,0.000E+0,
46.046689,0.000E+0,
46.095519,0.000E+0,
46.144349,0.000E+0,
46.193179,0.000E+0,
46.242009,1.000E+0,
46.290839,0.000E+0,
46.339669,0.000E+0,
46.38850,0.000E+0,
46.437329,0.000E+0,
46.486159,0.000E+0,
46.534989,1.000E+0,
46.583819,0.000E+0,
46.632649,0.000E+0,
46.681479,0.000E+0,
46.730309,1.000E+0,
46.779139,0.000E+0,
46.827969,1.000E+0,
46.87680,0.000E+0,
46.925629,1.000E+0,
46.974459,0.000E+0,
47.023289,1.000E+0,
47.072119,0.000E+0,
47.120949,0.000E+0,
47.169779,0.000E+0,
47.218609,1.000E+0,
47.267439,0.000E+0,
47.316269,0.000E+0,
47.36510,1.000E+0,
47.413929,1.000E+0,
47.462759,0.000E+0,
47.511589,0.000E+0,
47.560419,0.000E+0,
47.609249,1.000E+0,
47.658079,0.000E+0,
47.706909,0.000E+0,
47.755739,0.000E+0,
47.804569,1.000E+0,
47.85340,0.000E+0,
47.902229,0.000E+0,
47.951059,0.000E+0,
47.999889,0.000E+0,
48.048719,0.000E+0,
48.097549,0.000E+0,
48.146379,0.000E+0,
48.195209,1.000E+0,
48.244039,0.000E+0,
48.292869,1.000E+0,
48.34170,0.000E+0,
48.390529,0.000E+0,
48.439359,0.000E+0,
48.488189,1.000E+0,
48.537019,0.000E+0,
48.585849,0.000E+0,
48.634679,1.000E+0,
48.683509,0.000E+0,
48.732339,1.000E+0,
48.781169,1.000E+0,
48.830,0.000E+0,
48.878829,0.000E+0,
48.927659,2.000E+0,
48.976489,0.000E+0,
49.025319,1.000E+0,
49.074149,1.000E+0,
49.122979,0.000E+0,
49.171809,1.000E+0,
49.220639,1.000E+0,
49.269469,0.000E+0,
49.31830,0.000E+0,
49.367129,0.000E+0,
49.415959,0.000E+0,
49.464789,1.000E+0,
49.513619,0.000E+0,
49.562449,0.000E+0,
49.611279,0.000E+0,
49.660109,0.000E+0,
49.708939,2.000E+0,
49.757769,0.000E+0,
49.80660,1.000E+0,
49.855429,0.000E+0,
49.904259,0.000E+0,
49.953089,0.000E+0,
50.001919,0.000E+0,
50.050749,0.000E+0,
50.099579,0.000E+0,
50.148409,0.000E+0,
50.197239,0.000E+0,
50.246069,0.000E+0,
50.29490,1.000E+0,
50.343729,0.000E+0,
50.392559,0.000E+0,
50.441389,0.000E+0,
50.490219,0.000E+0,
50.539049,0.000E+0,
50.587879,1.000E+0,
50.636709,0.000E+0,
50.685539,0.000E+0,
50.734369,0.000E+0,
50.78320,0.000E+0,
50.832029,0.000E+0,
50.880859,0.000E+0,
50.929689,0.000E+0,
50.978519,0.000E+0,
51.027349,1.000E+0,
51.076179,1.000E+0,
51.125009,0.000E+0,
51.173839,2.000E+0,
51.222669,0.000E+0,
51.27150,0.000E+0,
51.320329,1.000E+0,
51.369159,0.000E+0,
51.417989,0.000E+0,
51.466819,1.000E+0,
51.515649,0.000E+0,
51.564479,0.000E+0,
51.613309,1.000E+0,
51.662139,0.000E+0,
51.710969,0.000E+0,
51.75980,0.000E+0,
51.808629,0.000E+0,
51.857459,0.000E+0,
51.906289,0.000E+0,
51.955119,0.000E+0,
52.003949,0.000E+0,
52.052779,0.000E+0,
52.101609,1.000E+0,
52.150439,0.000E+0,
52.199269,0.000E+0,
52.24810,0.000E+0,
52.296929,2.000E+0,
52.345759,1.000E+0,
52.394589,0.000E+0,
52.443419,0.000E+0,
52.492249,0.000E+0,
52.541079,0.000E+0,
52.589909,0.000E+0,
52.638739,1.000E+0,
52.687569,0.000E+0,
52.73640,0.000E+0,
52.785229,0.000E+0,
52.834059,0.000E+0,
52.882889,0.000E+0,
52.931719,0.000E+0,
52.980549,0.000E+0,
53.029379,0.000E+0,
53.078209,0.000E+0,
53.127039,0.000E+0,
53.175869,1.000E+0,
53.22470,0.000E+0,
53.273529,0.000E+0,
53.322359,1.000E+0,
53.371189,0.000E+0,
53.420019,1.000E+0,
53.468849,0.000E+0,
53.517679,0.000E+0,
53.566509,0.000E+0,
53.615339,0.000E+0,
53.664169,0.000E+0,
53.7130,0.000E+0,
53.761829,1.000E+0,
53.810659,0.000E+0,
53.859489,0.000E+0,
53.908319,1.000E+0,
53.957149,0.000E+0,
54.005979,0.000E+0,
54.054809,0.000E+0,
54.103639,2.000E+0,
54.152469,1.000E+0,
54.20130,1.000E+0,
54.250129,0.000E+0,
54.298959,1.000E+0,
54.347789,1.000E+0,
54.396619,0.000E+0,
54.445449,0.000E+0,
54.494279,1.000E+0,
54.543109,0.000E+0,
54.591939,0.000E+0,
54.640769,0.000E+0,
54.68960,2.000E+0,
54.738429,2.000E+0,
54.787259,0.000E+0,
54.836089,0.000E+0,
54.884919,0.000E+0,
54.933749,0.000E+0,
54.982579,0.000E+0,
55.031409,1.000E+0,
55.080239,0.000E+0,
55.129069,1.000E+0,
55.17790,0.000E+0,
55.226729,0.000E+0,
55.275559,0.000E+0,
55.324389,0.000E+0,
55.373219,0.000E+0,
55.422049,0.000E+0,
55.470879,0.000E+0,
55.519709,0.000E+0,
55.568539,0.000E+0,
55.617369,0.000E+0,
55.66620,0.000E+0,
55.715029,0.000E+0,
55.763859,0.000E+0,
55.812689,0.000E+0,
55.861519,2.000E+0,
55.910349,0.000E+0,
55.959179,0.000E+0,
56.008009,0.000E+0,
56.056839,1.000E+0,
56.105669,1.000E+0,
56.15450,0.000E+0,
56.203329,0.000E+0,
56.252159,0.000E+0,
56.300989,0.000E+0,
56.349819,0.000E+0,
56.398649,0.000E+0,
56.447479,0.000E+0,
56.496309,2.000E+0,
56.545139,0.000E+0,
56.593969,0.000E+0,
56.64280,0.000E+0,
56.691629,0.000E+0,
56.740459,0.000E+0,
56.789289,0.000E+0,
56.838119,0.000E+0,
56.886949,0.000E+0,
56.935779,0.000E+0,
56.984609,0.000E+0,
57.033439,0.000E+0,
57.082269,0.000E+0,
57.13110,0.000E+0,
57.179929,0.000E+0,
57.228759,0.000E+0,
57.277589,0.000E+0,
57.326419,0.000E+0,
57.375249,0.000E+0,
57.424079,0.000E+0,
57.472909,0.000E+0,
57.521739,0.000E+0,
57.570569,1.000E+0,
57.61940,0.000E+0,
57.668229,0.000E+0,
57.717059,0.000E+0,
57.765889,0.000E+0,
57.814719,0.000E+0,
57.863549,1.000E+0,
57.912379,0.000E+0,
57.961209,0.000E+0,
58.010039,2.000E+0,
58.058869,0.000E+0,
58.10770,0.000E+0,
58.156529,0.000E+0,
58.205359,0.000E+0,
58.254189,0.000E+0,
58.303019,0.000E+0,
58.351849,1.000E+0,
58.400679,0.000E+0,
58.449509,0.000E+0,
58.498339,0.000E+0,
58.547169,0.000E+0,
58.5960,0.000E+0,
58.644829,1.000E+0,
58.693659,0.000E+0,
58.742489,0.000E+0,
58.791319,0.000E+0,
58.840149,1.000E+0,
58.888979,0.000E+0,
58.937809,0.000E+0,
58.986639,0.000E+0,
59.035469,1.000E+0,
59.08430,0.000E+0,
59.133129,0.000E+0,
59.181959,1.000E+0,
59.230789,0.000E+0,
59.279619,0.000E+0,
59.328449,0.000E+0,
59.377279,0.000E+0,
59.426109,0.000E+0,
59.474939,0.000E+0,
59.523769,0.000E+0,
59.57260,0.000E+0,
59.621429,1.000E+0,
59.670259,1.000E+0,
59.719089,0.000E+0,
59.767919,1.000E+0,
59.816749,0.000E+0,
59.865579,0.000E+0,
59.914409,0.000E+0,
59.963239,1.000E+0,
60.012069,0.000E+0,
60.06090,0.000E+0,
60.109729,0.000E+0,
60.158559,1.000E+0,
60.207389,0.000E+0,
60.256219,0.000E+0,
60.305049,0.000E+0,
60.353879,0.000E+0,
60.402709,1.000E+0,
60.451539,0.000E+0,
60.500369,0.000E+0,
60.54920,0.000E+0,
60.598029,0.000E+0,
60.646859,0.000E+0,
60.695689,0.000E+0,
60.744519,0.000E+0,
60.793349,2.000E+0,
60.842179,0.000E+0,
60.891009,0.000E+0,
60.939839,1.000E+0,
60.988669,0.000E+0,
61.03750,0.000E+0,
61.086329,0.000E+0,
61.135159,2.000E+0,
61.183989,0.000E+0,
61.232819,0.000E+0,
61.281649,0.000E+0,
61.330479,1.000E+0,
61.379309,0.000E+0,
61.428139,0.000E+0,
61.476969,2.000E+0,
61.52580,0.000E+0,
61.574629,0.000E+0,
61.623459,0.000E+0,
61.672289,0.000E+0,
61.721119,0.000E+0,
61.769949,0.000E+0,
61.818779,0.000E+0,
61.867609,0.000E+0,
61.916439,0.000E+0,
61.965269,0.000E+0,
62.01410,0.000E+0,
62.062929,0.000E+0,
62.111759,0.000E+0,
62.160588,1.000E+0,
62.209418,1.000E+0,
62.258248,0.000E+0,
62.307078,0.000E+0,
62.355908,0.000E+0,
62.404738,0.000E+0,
62.453568,0.000E+0,
62.50240,0.000E+0,
62.551228,0.000E+0,
62.600058,0.000E+0,
62.648888,0.000E+0,
62.697718,0.000E+0,
62.746548,1.000E+0,
62.795378,0.000E+0,
62.844208,1.000E+0,
62.893038,0.000E+0,
62.941868,0.000E+0,
62.99070,0.000E+0,
63.039528,0.000E+0,
63.088358,0.000E+0,
63.137188,0.000E+0,
63.186018,0.000E+0,
63.234848,1.000E+0,
63.283678,1.000E+0,
63.332508,0.000E+0,
63.381338,0.000E+0,
63.430168,0.000E+0,
63.4790,0.000E+0,
63.527828,1.000E+0,
63.576658,1.000E+0,
63.625488,0.000E+0,
63.674318,0.000E+0,
63.723148,0.000E+0,
63.771978,0.000E+0,
63.820808,0.000E+0,
63.869638,0.000E+0,
63.918468,0.000E+0,
63.96730,0.000E+0,
64.016128,0.000E+0,
64.064958,1.000E+0,
64.113788,1.000E+0,
64.162618,0.000E+0,
64.211448,0.000E+0,
64.260278,0.000E+0,
64.309108,0.000E+0,
64.357938,2.000E+0,
64.406768,0.000E+0,
64.45560,0.000E+0,
64.504428,1.000E+0,
64.553258,1.000E+0,
64.602088,1.000E+0,
64.650918,0.000E+0,
64.699748,0.000E+0,
64.748578,0.000E+0,
64.797408,0.000E+0,
64.846238,0.000E+0,
64.895068,1.000E+0,
64.94390,0.000E+0,
64.992728,0.000E+0,
65.041558,1.000E+0,
65.090388,0.000E+0,
65.139218,1.000E+0,
65.188048,0.000E+0,
65.236878,0.000E+0,
65.285708,1.000E+0,
65.334538,1.000E+0,
65.383368,0.000E+0,
65.43220,0.000E+0,
65.481028,0.000E+0,
65.529858,0.000E+0,
65.578688,1.000E+0,
65.627518,0.000E+0,
65.676348,0.000E+0,
65.725178,0.000E+0,
65.774008,1.000E+0,
65.822838,0.000E+0,
65.871668,0.000E+0,
65.92050,0.000E+0,
65.969328,0.000E+0,
66.018158,0.000E+0,
66.066988,1.000E+0,
66.115818,0.000E+0,
66.164648,0.000E+0,
66.213478,1.000E+0,
66.262308,0.000E+0,
66.311138,0.000E+0,
66.359968,1.000E+0,
66.40880,0.000E+0,
66.457628,0.000E+0,
66.506458,0.000E+0,
66.555288,1.000E+0,
66.604118,1.000E+0,
66.652948,0.000E+0,
66.701778,0.000E+0,
66.750608,0.000E+0,
66.799438,0.000E+0,
66.848268,0.000E+0,
66.89710,0.000E+0,
66.945928,0.000E+0,
66.994758,0.000E+0,
67.043588,0.000E+0,
67.092418,0.000E+0,
67.141248,1.000E+0,
67.190078,0.000E+0,
67.238908,0.000E+0,
67.287738,0.000E+0,
67.336568,0.000E+0,
67.38540,1.000E+0,
67.434228,0.000E+0,
67.483058,0.000E+0,
67.531888,0.000E+0,
67.580718,1.000E+0,
67.629548,0.000E+0,
67.678378,1.000E+0,
67.727208,0.000E+0,
67.776038,0.000E+0,
67.824868,1.000E+0,
67.87370,0.000E+0,
67.922528,0.000E+0,
67.971358,1.000E+0,
68.020188,0.000E+0,
68.069018,0.000E+0,
68.117848,0.000E+0,
68.166678,0.000E+0,
68.215508,0.000E+0,
68.264338,0.000E+0,
68.313168,0.000E+0,
68.3620,0.000E+0,
68.410828,0.000E+0,
68.459658,1.000E+0,
68.508488,0.000E+0,
68.557318,0.000E+0,
68.606148,0.000E+0,
68.654978,0.000E+0,
68.703808,0.000E+0,
68.752638,0.000E+0,
68.801468,0.000E+0,
68.85030,0.000E+0,
68.899128,0.000E+0,
68.947958,0.000E+0,
68.996788,1.000E+0,
69.045618,0.000E+0,
69.094448,1.000E+0,
69.143278,0.000E+0,
69.192108,0.000E+0,
69.240938,1.000E+0,
69.289768,0.000E+0,
69.33860,0.000E+0,
69.387428,0.000E+0,
69.436258,0.000E+0,
69.485088,1.000E+0,
69.533918,0.000E+0,
69.582748,0.000E+0,
69.631578,0.000E+0,
69.680408,0.000E+0,
69.729238,0.000E+0,
69.778068,0.000E+0,
69.82690,0.000E+0,
69.875728,0.000E+0,
69.924558,0.000E+0,
69.973388,0.000E+0,
70.022218,0.000E+0,
70.071048,0.000E+0,
70.119878,1.000E+0,
70.168708,0.000E+0,
70.217538,0.000E+0,
70.266368,0.000E+0,
70.31520,0.000E+0,
70.364028,0.000E+0,
70.412858,0.000E+0,
70.461688,0.000E+0,
70.510518,0.000E+0,
70.559348,0.000E+0,
70.608178,0.000E+0,
70.657008,0.000E+0,
70.705838,0.000E+0,
70.754668,0.000E+0,
70.80350,0.000E+0,
70.852328,0.000E+0,
70.901158,0.000E+0,
70.949988,1.000E+0,
70.998818,0.000E+0,
71.047648,0.000E+0,
71.096478,0.000E+0,
71.145308,0.000E+0,
71.194138,0.000E+0,
71.242968,0.000E+0,
71.29180,1.000E+0,
71.340628,0.000E+0,
71.389458,0.000E+0,
71.438288,0.000E+0,
71.487118,0.000E+0,
71.535948,0.000E+0,
71.584778,0.000E+0,
71.633608,1.000E+0,
71.682438,1.000E+0,
71.731268,0.000E+0,
71.78010,0.000E+0,
71.828928,0.000E+0,
71.877758,1.000E+0,
71.926588,0.000E+0,
71.975418,0.000E+0,
72.024248,1.000E+0,
72.073078,0.000E+0,
72.121908,0.000E+0,
72.170738,0.000E+0,
72.219568,0.000E+0,
72.26840,1.000E+0,
72.317228,0.000E+0,
72.366058,0.000E+0,
72.414888,0.000E+0,
72.463718,0.000E+0,
72.512548,0.000E+0,
72.561378,0.000E+0,
72.610208,0.000E+0,
72.659038,0.000E+0,
72.707868,2.000E+0,
72.75670,0.000E+0,
72.805528,0.000E+0,
72.854358,0.000E+0,
72.903188,0.000E+0,
72.952018,0.000E+0,
73.000848,0.000E+0,
73.049678,0.000E+0,
73.098508,0.000E+0,
73.147338,0.000E+0,
73.196168,1.000E+0,
73.2450,0.000E+0,
73.293828,0.000E+0,
73.342658,1.000E+0,
73.391488,0.000E+0,
73.440318,0.000E+0,
73.489148,0.000E+0,
73.537978,0.000E+0,
73.586808,0.000E+0,
73.635638,0.000E+0,
73.684468,0.000E+0,
73.73330,0.000E+0,
73.782128,1.000E+0,
73.830958,0.000E+0,
73.879788,0.000E+0,
73.928618,0.000E+0,
73.977448,0.000E+0,
74.026278,0.000E+0,
74.075108,0.000E+0,
74.123938,0.000E+0,
74.172768,0.000E+0,
74.22160,0.000E+0,
74.270428,0.000E+0,
74.319258,0.000E+0,
74.368088,0.000E+0,
74.416918,0.000E+0,
74.465748,0.000E+0,
74.514578,0.000E+0,
74.563408,0.000E+0,
74.612238,0.000E+0,
74.661068,0.000E+0,
74.70990,0.000E+0,
74.758728,0.000E+0,
74.807558,1.000E+0,
74.856388,0.000E+0,
74.905218,0.000E+0,
74.954048,0.000E+0,
75.002878,1.000E+0,
75.051708,0.000E+0,
75.100538,0.000E+0,
75.149368,0.000E+0,
75.19820,0.000E+0,
75.247028,0.000E+0,
75.295858,0.000E+0,
75.344688,0.000E+0,
75.393518,0.000E+0,
75.442348,0.000E+0,
75.491178,0.000E+0,
75.540008,1.000E+0,
75.588838,0.000E+0,
75.637668,1.000E+0,
75.68650,0.000E+0,
75.735328,0.000E+0,
75.784158,0.000E+0,
75.832988,0.000E+0,
75.881818,0.000E+0,
75.930648,1.000E+0,
75.979478,0.000E+0,
76.028308,0.000E+0,
76.077138,1.000E+0,
76.125968,0.000E+0,
76.17480,1.000E+0,
76.223628,0.000E+0,
76.272458,0.000E+0,
76.321288,0.000E+0,
76.370118,0.000E+0,
76.418948,1.000E+0,
76.467778,0.000E+0,
76.516608,0.000E+0,
76.565438,0.000E+0,
76.614268,0.000E+0,
76.66310,0.000E+0,
76.711928,0.000E+0,
76.760758,0.000E+0,
76.809588,1.000E+0,
76.858418,0.000E+0,
76.907248,0.000E+0,
76.956078,1.000E+0,
77.004908,0.000E+0,
77.053738,0.000E+0,
77.102568,0.000E+0,
77.15140,0.000E+0,
77.200228,0.000E+0,
77.249058,1.000E+0,
77.297888,0.000E+0,
77.346718,0.000E+0,
77.395548,1.000E+0,
77.444378,0.000E+0,
77.493208,0.000E+0,
77.542038,0.000E+0,
77.590868,0.000E+0,
77.63970,0.000E+0,
77.688528,0.000E+0,
77.737358,0.000E+0,
77.786188,0.000E+0,
77.835018,0.000E+0,
77.883848,0.000E+0,
77.932678,2.000E+0,
77.981508,0.000E+0,
78.030338,0.000E+0,
78.079168,0.000E+0,
78.1280,1.000E+0,
78.176828,0.000E+0,
78.225658,0.000E+0,
78.274488,0.000E+0,
78.323318,0.000E+0,
78.372148,0.000E+0,
78.420978,0.000E+0,
78.469808,1.000E+0,
78.518638,0.000E+0,
78.567468,0.000E+0,
78.61630,0.000E+0,
78.665128,0.000E+0,
78.713958,0.000E+0,
78.762788,0.000E+0,
78.811618,0.000E+0,
78.860448,0.000E+0,
78.909278,0.000E+0,
78.958108,0.000E+0,
79.006938,0.000E+0,
79.055768,1.000E+0,
79.10460,0.000E+0,
79.153428,0.000E+0,
79.202258,1.000E+0,
79.251088,0.000E+0,
79.299918,0.000E+0,
79.348748,0.000E+0,
79.397578,0.000E+0,
79.446408,0.000E+0,
79.495238,0.000E+0,
79.544068,0.000E+0,
79.59290,0.000E+0,
79.641728,0.000E+0,
79.690558,1.000E+0,
79.739388,0.000E+0,
79.788218,0.000E+0,
79.837048,0.000E+0,
79.885878,0.000E+0,
79.934708,0.000E+0,
79.983538,1.000E+0,
80.032368,0.000E+0,
80.08120,0.000E+0,
80.130028,0.000E+0,
80.178858,0.000E+0,
80.227688,0.000E+0,
80.276518,0.000E+0,
80.325348,0.000E+0,
80.374178,1.000E+0,
80.423008,0.000E+0,
80.471838,0.000E+0,
80.520668,0.000E+0,
80.56950,0.000E+0,
80.618328,0.000E+0,
80.667158,0.000E+0,
80.715988,0.000E+0,
80.764818,0.000E+0,
80.813648,0.000E+0,
80.862478,0.000E+0,
80.911308,0.000E+0,
80.960138,0.000E+0,
81.008968,0.000E+0,
81.05780,0.000E+0,
81.106628,1.000E+0,
81.155458,0.000E+0,
81.204288,0.000E+0,
81.253118,1.000E+0,
81.301948,0.000E+0,
81.350778,0.000E+0,
81.399608,1.000E+0,
81.448438,0.000E+0,
81.497268,0.000E+0,
81.54610,1.000E+0,
81.594928,0.000E+0,
81.643758,1.000E+0,
81.692588,0.000E+0,
81.741418,0.000E+0,
81.790248,0.000E+0,
81.839078,0.000E+0,
81.887908,0.000E+0,
81.936738,0.000E+0,
81.985568,0.000E+0,
82.03440,0.000E+0,
82.083228,1.000E+0,
82.132058,0.000E+0,
82.180888,0.000E+0,
82.229718,0.000E+0,
82.278548,1.000E+0,
82.327378,0.000E+0,
82.376208,0.000E+0,
82.425038,1.000E+0,
82.473868,0.000E+0,
82.52270,0.000E+0,
82.571528,0.000E+0,
82.620358,0.000E+0,
82.669188,0.000E+0,
82.718018,0.000E+0,
82.766848,0.000E+0,
82.815678,0.000E+0,
82.864508,0.000E+0,
82.913338,2.000E+0,
82.962168,0.000E+0,
83.0110,1.000E+0,
83.059828,0.000E+0,
83.108658,0.000E+0,
83.157488,0.000E+0,
83.206318,0.000E+0,
83.255148,0.000E+0,
83.303978,0.000E+0,
83.352808,0.000E+0,
83.401638,0.000E+0,
83.450468,0.000E+0,
83.49930,0.000E+0,
83.548128,0.000E+0,
83.596958,0.000E+0,
83.645788,1.000E+0,
83.694618,0.000E+0,
83.743448,0.000E+0,
83.792278,0.000E+0,
83.841108,1.000E+0,
83.889938,0.000E+0,
83.938768,0.000E+0,
83.98760,0.000E+0,
84.036428,0.000E+0,
84.085258,0.000E+0,
84.134088,0.000E+0,
84.182918,0.000E+0,
84.231748,1.000E+0,
84.280578,0.000E+0,
84.329408,0.000E+0,
84.378238,0.000E+0,
84.427068,0.000E+0,
84.47590,0.000E+0,
84.524728,0.000E+0,
84.573558,0.000E+0,
84.622388,0.000E+0,
84.671218,0.000E+0,
84.720048,0.000E+0,
84.768878,0.000E+0,
84.817708,0.000E+0,
84.866538,1.000E+0,
84.915368,0.000E+0,
84.96420,0.000E+0,
85.013028,0.000E+0,
85.061858,0.000E+0,
85.110688,0.000E+0,
85.159518,0.000E+0,
85.208348,0.000E+0,
85.257178,0.000E+0,
85.306008,0.000E+0,
85.354838,0.000E+0,
85.403668,0.000E+0,
85.45250,0.000E+0,
85.501328,1.000E+0,
85.550158,0.000E+0,
85.598988,0.000E+0,
85.647818,0.000E+0,
85.696648,1.000E+0,
85.745478,1.000E+0,
85.794308,1.000E+0,
85.843138,0.000E+0,
85.891968,0.000E+0,
85.94080,0.000E+0,
85.989628,0.000E+0,
86.038458,0.000E+0,
86.087288,0.000E+0,
86.136118,0.000E+0,
86.184948,0.000E+0,
86.233778,0.000E+0,
86.282608,0.000E+0,
86.331438,0.000E+0,
86.380268,0.000E+0,
86.42910,0.000E+0,
86.477928,0.000E+0,
86.526758,0.000E+0,
86.575588,0.000E+0,
86.624418,1.000E+0,
86.673248,0.000E+0,
86.722078,0.000E+0,
86.770908,0.000E+0,
86.819738,0.000E+0,
86.868568,0.000E+0,
86.91740,0.000E+0,
86.966228,0.000E+0,
87.015058,0.000E+0,
87.063888,0.000E+0,
87.112718,0.000E+0,
87.161548,0.000E+0,
87.210378,0.000E+0,
87.259208,0.000E+0,
87.308038,0.000E+0,
87.356868,0.000E+0,
87.40570,0.000E+0,
87.454528,2.000E+0,
87.503358,0.000E+0,
87.552188,0.000E+0,
87.601018,1.000E+0,
87.649848,0.000E+0,
87.698678,1.000E+0,
87.747508,1.000E+0,
87.796338,0.000E+0,
87.845168,0.000E+0,
87.8940,0.000E+0,
87.942828,0.000E+0,
87.991658,0.000E+0,
88.040488,0.000E+0,
88.089318,0.000E+0,
88.138148,0.000E+0,
88.186978,0.000E+0,
88.235808,0.000E+0,
88.284638,0.000E+0,
88.333468,0.000E+0,
88.38230,0.000E+0,
88.431128,0.000E+0,
88.479958,0.000E+0,
88.528788,0.000E+0,
88.577618,0.000E+0,
88.626448,0.000E+0,
88.675278,0.000E+0,
88.724108,0.000E+0,
88.772938,0.000E+0,
88.821768,0.000E+0,
88.87060,0.000E+0,
88.919428,1.000E+0,
88.968258,0.000E+0,
89.017088,0.000E+0,
89.065918,0.000E+0,
89.114748,0.000E+0,
89.163578,0.000E+0,
89.212408,0.000E+0,
89.261238,1.000E+0,
89.310068,0.000E+0,
89.35890,0.000E+0,
89.407728,0.000E+0,
89.456558,0.000E+0,
89.505388,0.000E+0,
89.554218,0.000E+0,
89.603048,0.000E+0,
89.651878,0.000E+0,
89.700708,0.000E+0,
89.749538,0.000E+0,
89.798368,0.000E+0,
89.84720,2.000E+0,
89.896028,0.000E+0,
89.944858,0.000E+0,
89.993688,1.000E+0,
90.042518,0.000E+0,
90.091348,0.000E+0,
90.140178,0.000E+0,
90.189008,0.000E+0,
90.237838,0.000E+0,
90.286668,0.000E+0,
90.33550,0.000E+0,
90.384328,0.000E+0,
90.433158,0.000E+0,
90.481988,0.000E+0,
90.530818,0.000E+0,
90.579648,0.000E+0,
90.628478,0.000E+0,
90.677308,0.000E+0,
90.726138,0.000E+0,
90.774968,0.000E+0,
90.82380,0.000E+0,
90.872628,0.000E+0,
90.921458,0.000E+0,
90.970288,1.000E+0,
91.019118,0.000E+0,
91.067948,0.000E+0,
91.116778,0.000E+0,
91.165608,0.000E+0,
91.214438,0.000E+0,
91.263268,0.000E+0,
91.31210,0.000E+0,
91.360928,0.000E+0,
91.409758,0.000E+0,
91.458588,0.000E+0,
91.507418,0.000E+0,
91.556248,0.000E+0,
91.605078,0.000E+0,
91.653908,0.000E+0,
91.702738,0.000E+0,
91.751568,0.000E+0,
91.80040,0.000E+0,
91.849228,0.000E+0,
91.898058,0.000E+0,
91.946888,0.000E+0,
91.995718,0.000E+0,
92.044548,0.000E+0,
92.093378,0.000E+0,
92.142208,0.000E+0,
92.191038,0.000E+0,
92.239868,0.000E+0,
92.28870,0.000E+0,
92.337528,0.000E+0,
92.386358,0.000E+0,
92.435188,0.000E+0,
92.484018,0.000E+0,
92.532848,0.000E+0,
92.581678,0.000E+0,
92.630508,0.000E+0,
92.679338,1.000E+0,
92.728168,1.000E+0,
92.7770,0.000E+0,
92.825828,0.000E+0,
92.874658,0.000E+0,
92.923488,0.000E+0,
92.972318,0.000E+0,
93.021148,0.000E+0,
93.069978,0.000E+0,
93.118808,0.000E+0,
93.167638,0.000E+0,
93.216468,0.000E+0,
93.26530,1.000E+0,
93.314128,0.000E+0,
93.362958,0.000E+0,
93.411788,0.000E+0,
93.460618,0.000E+0,
93.509448,0.000E+0,
93.558278,0.000E+0,
93.607108,0.000E+0,
93.655938,0.000E+0,
93.704768,0.000E+0,
93.75360,0.000E+0,
93.802428,0.000E+0,
93.851258,0.000E+0,
93.900088,1.000E+0,
93.948918,0.000E+0,
93.997748,0.000E+0,
94.046578,1.000E+0,
94.095408,0.000E+0,
94.144238,0.000E+0,
94.193068,0.000E+0,
94.24190,0.000E+0,
94.290728,0.000E+0,
94.339558,0.000E+0,
94.388388,1.000E+0,
94.437218,0.000E+0,
94.486048,0.000E+0,
94.534878,0.000E+0,
94.583708,0.000E+0,
94.632538,0.000E+0,
94.681368,1.000E+0,
94.73020,0.000E+0,
94.779028,0.000E+0,
94.827858,0.000E+0,
94.876688,0.000E+0,
94.925518,0.000E+0,
94.974348,0.000E+0,
95.023178,0.000E+0,
95.072008,0.000E+0,
95.120838,0.000E+0,
95.169668,0.000E+0,
95.21850,0.000E+0,
95.267328,2.000E+0,
95.316158,0.000E+0,
95.364988,0.000E+0,
95.413818,0.000E+0,
95.462648,0.000E+0,
95.511478,0.000E+0,
95.560308,0.000E+0,
95.609138,0.000E+0,
95.657968,0.000E+0,
95.70680,0.000E+0,
95.755628,0.000E+0,
95.804458,0.000E+0,
95.853288,1.000E+0,
95.902118,0.000E+0,
95.950948,0.000E+0,
95.999778,0.000E+0,
96.048608,0.000E+0,
96.097438,0.000E+0,
96.146268,0.000E+0,
96.19510,0.000E+0,
96.243928,0.000E+0,
96.292758,0.000E+0,
96.341588,0.000E+0,
96.390418,0.000E+0,
96.439248,0.000E+0,
96.488078,0.000E+0,
96.536908,1.000E+0,
96.585738,0.000E+0,
96.634568,0.000E+0,
96.68340,0.000E+0,
96.732228,0.000E+0,
96.781058,0.000E+0,
96.829888,1.000E+0,
96.878718,0.000E+0,
96.927548,0.000E+0,
96.976378,0.000E+0,
97.025208,1.000E+0,
97.074038,0.000E+0,
97.122868,0.000E+0,
97.17170,0.000E+0,
97.220528,0.000E+0,
97.269358,0.000E+0,
97.318188,1.000E+0,
97.367018,0.000E+0,
97.415848,0.000E+0,
97.464678,0.000E+0,
97.513508,0.000E+0,
97.562338,1.000E+0,
97.611168,0.000E+0,
97.660,0.000E+0,
97.708828,1.000E+0,
97.757658,0.000E+0,
97.806488,0.000E+0,
97.855318,0.000E+0,
97.904148,0.000E+0,
97.952978,0.000E+0,
98.001808,0.000E+0,
98.050638,0.000E+0,
98.099468,0.000E+0,
98.14830,0.000E+0,
98.197128,2.000E+0,
98.245958,0.000E+0,
98.294788,0.000E+0,
98.343618,0.000E+0,
98.392448,0.000E+0,
98.441278,0.000E+0,
98.490108,0.000E+0,
98.538938,0.000E+0,
98.587768,0.000E+0,
98.63660,0.000E+0,
98.685428,0.000E+0,
98.734258,0.000E+0,
98.783088,0.000E+0,
98.831918,0.000E+0,
98.880748,0.000E+0,
98.929578,0.000E+0,
98.978408,0.000E+0,
99.027238,0.000E+0,
99.076068,0.000E+0,
99.12490,0.000E+0,
99.173728,0.000E+0,
99.222558,0.000E+0,
99.271388,0.000E+0,
99.320218,0.000E+0,
99.369048,0.000E+0,
99.417878,0.000E+0,
99.466708,0.000E+0,
99.515538,0.000E+0,
99.564368,0.000E+0,
99.61320,0.000E+0,
99.662028,0.000E+0,
99.710858,2.000E+0,
99.759688,0.000E+0,
99.808518,0.000E+0,
99.857348,0.000E+0,
99.906178,0.000E+0,
99.955008,0.000E+0,
100.003840,0.000E+0,
100.052670,0.000E+0,
100.101500,1.000E+0,
100.150330,0.000E+0,
100.199160,0.000E+0,
100.24800,0.000E+0,
100.296820,0.000E+0,
100.345650,0.000E+0,
100.394480,0.000E+0,
100.443310,1.000E+0,
100.492140,0.000E+0,
100.54100,1.000E+0,
100.589800,0.000E+0,
100.638630,0.000E+0,
100.687460,1.000E+0,
100.736290,0.000E+0,
100.785120,1.000E+0,
100.833950,1.000E+0,
100.882780,0.000E+0,
100.931610,0.000E+0,
100.980440,0.000E+0,
101.029270,1.000E+0,
101.078100,0.000E+0,
101.126930,1.000E+0,
101.175760,0.000E+0,
101.224590,0.000E+0,
101.273420,1.000E+0,
101.322250,0.000E+0,
101.371080,0.000E+0,
101.419910,0.000E+0,
101.468740,0.000E+0,
101.517570,0.000E+0,
101.566400,0.000E+0,
101.615230,0.000E+0,
101.664060,0.000E+0,
101.712890,0.000E+0,
101.761720,0.000E+0,
101.810550,0.000E+0,
101.859380,0.000E+0,
101.908210,0.000E+0,
101.95700,0.000E+0,
102.005870,0.000E+0,
102.054700,0.000E+0,
102.103530,1.000E+0,
102.152360,0.000E+0,
102.201190,0.000E+0,
102.2500,0.000E+0,
102.298850,0.000E+0,
102.347680,0.000E+0,
102.396510,0.000E+0,
102.445340,0.000E+0,
102.494170,0.000E+0,
102.54300,0.000E+0,
102.591830,0.000E+0,
102.640660,0.000E+0,
102.689490,0.000E+0,
102.738320,0.000E+0,
102.787150,0.000E+0,
102.83600,0.000E+0,
102.884810,0.000E+0,
102.933640,0.000E+0,
102.982470,0.000E+0,
103.031300,1.000E+0,
103.080130,0.000E+0,
103.12900,0.000E+0,
103.177790,0.000E+0,
103.226620,0.000E+0,
103.275450,0.000E+0,
103.324280,1.000E+0,
103.373110,0.000E+0,
103.421940,1.000E+0,
103.470770,0.000E+0,
103.519600,0.000E+0,
103.568430,0.000E+0,
103.617260,0.000E+0,
103.666090,0.000E+0,
103.714920,0.000E+0,
103.763750,1.000E+0,
103.812580,0.000E+0,
103.861410,0.000E+0,
103.910240,0.000E+0,
103.959070,0.000E+0,
104.007900,0.000E+0,
104.056730,0.000E+0,
104.105560,1.000E+0,
104.154390,0.000E+0,
104.203220,0.000E+0,
104.25200,0.000E+0,
104.300880,1.000E+0,
104.349710,0.000E+0,
104.398540,0.000E+0,
104.447370,1.000E+0,
104.496200,0.000E+0,
104.54500,1.000E+0,
104.593860,0.000E+0,
104.642690,1.000E+0,
104.691520,0.000E+0,
104.740350,0.000E+0,
104.789180,0.000E+0,
104.83800,0.000E+0,
104.886840,0.000E+0,
104.935670,0.000E+0,
104.984500,0.000E+0,
105.033330,0.000E+0,
105.082160,0.000E+0,
105.13100,0.000E+0,
105.179820,0.000E+0,
105.228650,0.000E+0,
105.277480,0.000E+0,
105.326310,0.000E+0,
105.375140,0.000E+0,
105.42400,0.000E+0,
105.472800,0.000E+0,
105.521630,0.000E+0,
105.570460,0.000E+0,
105.619290,0.000E+0,
105.668120,1.000E+0,
105.716950,0.000E+0,
105.765780,0.000E+0,
105.814610,0.000E+0,
105.863440,1.000E+0,
105.912270,0.000E+0,
105.961100,0.000E+0,
106.009930,0.000E+0,
106.058760,0.000E+0,
106.107590,0.000E+0,
106.156420,0.000E+0,
106.205250,0.000E+0,
106.254080,0.000E+0,
106.302910,0.000E+0,
106.351740,0.000E+0,
106.400570,0.000E+0,
106.449400,0.000E+0,
106.498230,0.000E+0,
106.547060,0.000E+0,
106.595890,0.000E+0,
106.644720,0.000E+0,
106.693550,0.000E+0,
106.742380,0.000E+0,
106.791210,0.000E+0,
106.8400,0.000E+0,
106.888870,0.000E+0,
106.937700,0.000E+0,
106.986530,1.000E+0,
107.035360,0.000E+0,
107.084190,0.000E+0,
107.13300,0.000E+0,
107.181850,0.000E+0,
107.230680,0.000E+0,
107.279510,1.000E+0,
107.328340,0.000E+0,
107.377170,0.000E+0,
107.42600,1.000E+0,
107.474830,0.000E+0,
107.523660,0.000E+0,
107.572490,0.000E+0,
107.621320,0.000E+0,
107.670150,0.000E+0,
107.71900,0.000E+0,
107.767810,0.000E+0,
107.816640,0.000E+0,
107.865470,0.000E+0,
107.914300,1.000E+0,
107.963130,2.000E+0,
108.01200,0.000E+0,
108.060790,0.000E+0,
108.109620,0.000E+0,
108.158450,0.000E+0,
108.207280,0.000E+0,
108.256110,0.000E+0,
108.304940,1.000E+0,
108.353770,0.000E+0,
108.402600,0.000E+0,
108.451430,0.000E+0,
108.500260,0.000E+0,
108.549090,0.000E+0,
108.597920,0.000E+0,
108.646750,0.000E+0,
108.695580,0.000E+0,
108.744410,0.000E+0,
108.793240,0.000E+0,
108.842070,0.000E+0,
108.890900,0.000E+0,
108.939730,0.000E+0,
108.988560,1.000E+0,
109.037390,0.000E+0,
109.086220,0.000E+0,
109.13500,0.000E+0,
109.183880,0.000E+0,
109.232710,0.000E+0,
109.281540,0.000E+0,
109.330370,1.000E+0,
109.379200,0.000E+0,
109.42800,0.000E+0,
109.476860,0.000E+0,
109.525690,0.000E+0,
109.574520,1.000E+0,
109.623350,0.000E+0,
109.672180,0.000E+0,
109.72100,0.000E+0,
109.769840,0.000E+0,
109.818670,0.000E+0,
109.867500,0.000E+0,
109.916330,0.000E+0,
109.965160,0.000E+0,
110.01400,0.000E+0,
110.062820,0.000E+0,
110.111650,0.000E+0,
110.160480,0.000E+0,
110.209310,0.000E+0,
110.258140,0.000E+0,
110.30700,0.000E+0,
110.355800,1.000E+0,
110.404630,1.000E+0,
110.453460,0.000E+0,
110.502290,0.000E+0,
110.551120,0.000E+0,
110.599950,0.000E+0,
110.648780,0.000E+0,
110.697610,1.000E+0,
110.746440,0.000E+0,
110.795270,0.000E+0,
110.844100,0.000E+0,
110.892930,1.000E+0,
110.941760,0.000E+0,
110.990590,0.000E+0,
111.039420,0.000E+0,
111.088250,1.000E+0,
111.137080,1.000E+0,
111.185910,0.000E+0,
111.234740,0.000E+0,
111.283570,0.000E+0,
111.332400,0.000E+0,
111.381230,0.000E+0,
111.430060,0.000E+0,
111.478890,0.000E+0,
111.527720,1.000E+0,
111.576550,0.000E+0,
111.625380,0.000E+0,
111.674210,0.000E+0,
111.72300,0.000E+0,
111.771870,0.000E+0,
111.820700,0.000E+0,
111.869530,0.000E+0,
111.918360,0.000E+0,
111.967190,0.000E+0,
112.01600,0.000E+0,
112.064850,0.000E+0,
112.113680,1.000E+0,
112.162510,0.000E+0,
112.211340,0.000E+0,
112.260170,0.000E+0,
112.30900,0.000E+0,
112.357830,0.000E+0,
112.406660,1.000E+0,
112.455490,0.000E+0,
112.504320,0.000E+0,
112.553150,0.000E+0,
112.60200,0.000E+0,
112.650810,0.000E+0,
112.699640,0.000E+0,
112.748470,0.000E+0,
112.797300,0.000E+0,
112.846130,0.000E+0,
112.89500,0.000E+0,
112.943790,1.000E+0,
112.992620,0.000E+0,
113.041450,0.000E+0,
113.090280,0.000E+0,
113.139110,0.000E+0,
113.187940,0.000E+0,
113.236770,0.000E+0,
113.285600,1.000E+0,
113.334430,0.000E+0,
113.383260,0.000E+0,
113.432090,0.000E+0,
113.480920,0.000E+0,
113.529750,0.000E+0,
113.578580,0.000E+0,
113.627410,0.000E+0,
113.676240,0.000E+0,
113.725070,1.000E+0,
113.773900,0.000E+0,
113.822730,0.000E+0,
113.871560,0.000E+0,
113.920390,0.000E+0,
113.969220,0.000E+0,
114.01800,0.000E+0,
114.066880,0.000E+0,
114.115710,0.000E+0,
114.164540,2.000E+0,
114.213370,0.000E+0,
114.262200,0.000E+0,
114.31100,0.000E+0,
114.359860,0.000E+0,
114.408690,0.000E+0,
114.457520,0.000E+0,
114.506350,0.000E+0,
114.555180,0.000E+0,
114.60400,0.000E+0,
114.652840,0.000E+0,
114.701670,0.000E+0,
114.750500,0.000E+0,
114.799330,0.000E+0,
114.848160,0.000E+0,
114.89700,0.000E+0,
114.945820,1.000E+0,
114.994650,0.000E+0,
115.043480,0.000E+0,
115.092310,2.000E+0,
115.141140,0.000E+0,
115.1900,1.000E+0,
115.238800,0.000E+0,
115.287630,0.000E+0,
115.336460,1.000E+0,
115.385290,0.000E+0,
115.434120,0.000E+0,
115.482950,0.000E+0,
115.531780,0.000E+0,
115.580610,0.000E+0,
115.629440,0.000E+0,
115.678270,1.000E+0,
115.727100,0.000E+0,
115.775930,1.000E+0,
115.824760,0.000E+0,
115.873590,0.000E+0,
115.922420,0.000E+0,
115.971250,0.000E+0,
116.020080,0.000E+0,
116.068910,0.000E+0,
116.117740,0.000E+0,
116.166570,0.000E+0,
116.215400,0.000E+0,
116.264230,0.000E+0,
116.313060,0.000E+0,
116.361890,0.000E+0,
116.410720,0.000E+0,
116.459550,0.000E+0,
116.508380,0.000E+0,
116.557210,0.000E+0,
116.60600,0.000E+0,
116.654870,0.000E+0,
116.703700,0.000E+0,
116.752530,0.000E+0,
116.801360,0.000E+0,
116.850190,0.000E+0,
116.89900,1.000E+0,
116.947850,0.000E+0,
116.996680,0.000E+0,
117.045510,0.000E+0,
117.094340,0.000E+0,
117.143170,0.000E+0,
117.19200,0.000E+0,
117.240830,0.000E+0,
117.289660,0.000E+0,
117.338490,0.000E+0,
117.387320,0.000E+0,
117.436150,0.000E+0,
117.48500,0.000E+0,
117.533810,0.000E+0,
117.582640,0.000E+0,
117.631470,0.000E+0,
117.680300,0.000E+0,
117.729130,0.000E+0,
117.77800,1.000E+0,
117.826790,0.000E+0,
117.875620,0.000E+0,
117.924450,0.000E+0,
117.973280,0.000E+0,
118.022110,0.000E+0,
118.070940,0.000E+0,
118.119770,0.000E+0,
118.168600,0.000E+0,
118.217430,0.000E+0,
118.266260,0.000E+0,
118.315090,0.000E+0,
118.363920,0.000E+0,
118.412750,0.000E+0,
118.461580,0.000E+0,
118.510410,0.000E+0,
118.559240,1.000E+0,
118.608070,0.000E+0,
118.656900,0.000E+0,
118.705730,0.000E+0,
118.754560,0.000E+0,
118.803390,0.000E+0,
118.852220,0.000E+0,
118.90100,0.000E+0,
118.949880,0.000E+0,
118.998710,0.000E+0,
119.047540,0.000E+0,
119.096370,0.000E+0,
119.145200,0.000E+0,
119.19400,0.000E+0,
119.242860,0.000E+0,
119.291690,0.000E+0,
119.340520,0.000E+0,
119.389350,0.000E+0,
119.438180,0.000E+0,
119.48700,0.000E+0,
119.535840,0.000E+0,
119.584670,0.000E+0,
119.633500,0.000E+0,
119.682330,0.000E+0,
119.731160,1.000E+0,
119.7800,0.000E+0,
119.828820,0.000E+0,
119.877650,0.000E+0,
119.926480,0.000E+0,
119.975310,1.000E+0,
120.024140,0.000E+0,
120.07300,1.000E+0,
120.121800,0.000E+0,
120.170630,0.000E+0,
120.219460,0.000E+0,
120.268290,0.000E+0,
120.317120,0.000E+0,
120.365950,0.000E+0,
120.414780,0.000E+0,
120.463610,1.000E+0,
120.512440,1.000E+0,
120.561270,0.000E+0,
120.610100,1.000E+0,
120.658930,0.000E+0,
120.707760,1.000E+0,
120.756590,0.000E+0,
120.805420,0.000E+0,
120.854250,0.000E+0,
120.903080,0.000E+0,
120.951910,0.000E+0,
121.000740,0.000E+0,
121.049570,0.000E+0,
121.098400,0.000E+0,
121.147230,0.000E+0,
121.196060,1.000E+0,
121.244890,0.000E+0,
121.293720,0.000E+0,
121.342550,0.000E+0,
121.391380,0.000E+0,
121.440210,0.000E+0,
121.48900,0.000E+0,
121.537870,0.000E+0,
121.586700,0.000E+0,
121.635530,0.000E+0,
121.684360,0.000E+0,
121.733190,0.000E+0,
121.78200,0.000E+0,
121.830850,0.000E+0,
121.879680,0.000E+0,
121.928510,1.000E+0,
121.977340,0.000E+0,
122.026170,0.000E+0,
122.07500,0.000E+0,
122.123830,1.000E+0,
122.172660,0.000E+0,
122.221490,0.000E+0,
122.270320,0.000E+0,
122.319150,0.000E+0,
122.36800,0.000E+0,
122.416810,0.000E+0,
122.465640,0.000E+0,
122.514470,0.000E+0,
122.563300,0.000E+0,
122.612130,0.000E+0,
122.66100,0.000E+0,
122.709790,0.000E+0,
122.758620,0.000E+0,
122.807450,0.000E+0,
122.856280,0.000E+0,
122.905110,0.000E+0,
122.953940,0.000E+0,
123.002770,1.000E+0,
123.051600,0.000E+0,
123.100430,1.000E+0,
123.149260,0.000E+0,
123.198090,0.000E+0,
123.246920,0.000E+0,
123.295750,1.000E+0,
123.344580,0.000E+0,
123.393410,0.000E+0,
123.442240,1.000E+0,
123.491070,0.000E+0,
123.539900,0.000E+0,
123.588730,0.000E+0,
123.637560,0.000E+0,
123.686390,1.000E+0,
123.735220,0.000E+0,
123.78400,0.000E+0,
123.832880,0.000E+0,
123.881710,0.000E+0,
123.930540,0.000E+0,
123.979370,0.000E+0,
124.028200,0.000E+0,
124.07700,0.000E+0,
124.125860,0.000E+0,
124.174690,0.000E+0,
124.223520,0.000E+0,
124.272350,1.000E+0,
124.321180,0.000E+0,
124.3700,0.000E+0,
124.418840,0.000E+0,
124.467670,0.000E+0,
124.516500,1.000E+0,
124.565330,0.000E+0,
124.614160,0.000E+0,
124.66300,0.000E+0,
124.711820,0.000E+0,
124.760650,0.000E+0,
124.809480,0.000E+0,
124.858310,0.000E+0,
124.907140,1.000E+0,
124.95600,1.000E+0,
125.004800,0.000E+0,
125.053630,0.000E+0,
125.102460,0.000E+0,
125.151290,0.000E+0,
125.200120,0.000E+0,
125.248950,0.000E+0,
125.297780,0.000E+0,
125.346610,0.000E+0,
125.395440,0.000E+0,
125.444270,0.000E+0,
125.493100,0.000E+0,
125.541930,0.000E+0,
125.590760,0.000E+0,
125.639590,0.000E+0,
125.688420,0.000E+0,
125.737250,0.000E+0,
125.786080,1.000E+0,
125.834910,1.000E+0,
125.883740,0.000E+0,
125.932570,0.000E+0,
125.981400,0.000E+0,
126.030230,0.000E+0,
126.079060,1.000E+0,
126.127890,0.000E+0,
126.176720,0.000E+0,
126.225550,0.000E+0,
126.274380,1.000E+0,
126.323210,0.000E+0,
126.37200,0.000E+0,
126.420870,0.000E+0,
126.469700,0.000E+0,
126.518530,0.000E+0,
126.567360,1.000E+0,
126.616190,0.000E+0,
126.66500,0.000E+0,
126.713850,0.000E+0,
126.762680,0.000E+0,
126.811510,0.000E+0,
126.860340,0.000E+0,
126.909170,0.000E+0,
126.95800,0.000E+0,
127.006830,0.000E+0,
127.055660,0.000E+0,
127.104490,0.000E+0,
127.153320,0.000E+0,
127.202150,1.000E+0,
127.25100,0.000E+0,
127.299810,1.000E+0,
127.348640,0.000E+0,
127.397470,0.000E+0,
127.446300,0.000E+0,
127.495130,0.000E+0,
127.54400,0.000E+0,
127.592790,0.000E+0,
127.641620,0.000E+0,
127.690450,0.000E+0,
127.739280,0.000E+0,
127.788110,0.000E+0,
127.836940,0.000E+0,
127.885770,0.000E+0,
127.934600,0.000E+0,
127.983430,0.000E+0,
128.032260,0.000E+0,
128.081090,0.000E+0,
128.129920,1.000E+0,
128.178750,0.000E+0,
128.227580,0.000E+0,
128.276410,0.000E+0,
128.325240,0.000E+0,
128.374070,0.000E+0,
128.422900,0.000E+0,
128.471730,0.000E+0,
128.520560,2.000E+0,
128.569390,1.000E+0,
128.618220,0.000E+0,
128.66700,0.000E+0,
128.715880,1.000E+0,
128.764710,0.000E+0,
128.813540,0.000E+0,
128.862370,0.000E+0,
128.911200,0.000E+0,
128.9600,0.000E+0,
129.008860,0.000E+0,
129.057690,0.000E+0,
129.106520,0.000E+0,
129.155350,0.000E+0,
129.204180,0.000E+0,
129.25300,1.000E+0,
129.301840,0.000E+0,
129.350670,0.000E+0,
129.399500,0.000E+0,
129.448330,0.000E+0,
129.497160,0.000E+0,
129.54600,0.000E+0,
129.594820,0.000E+0,
129.643650,0.000E+0,
129.692480,0.000E+0,
129.741310,1.000E+0,
129.790140,0.000E+0,
129.83900,0.000E+0,
129.887800,1.000E+0,
129.936630,0.000E+0,
129.985460,0.000E+0,
130.034290,0.000E+0,
130.083120,0.000E+0,
130.131950,0.000E+0,
130.180780,0.000E+0,
130.229610,0.000E+0,
130.278440,0.000E+0,
130.327270,1.000E+0,
130.376100,0.000E+0,
130.424930,0.000E+0,
130.473760,0.000E+0,
130.522590,0.000E+0,
130.571420,0.000E+0,
130.620250,0.000E+0,
130.669080,0.000E+0,
130.717910,0.000E+0,
130.766740,0.000E+0,
130.815570,0.000E+0,
130.864400,0.000E+0,
130.913230,0.000E+0,
130.962060,0.000E+0,
131.010890,2.000E+0,
131.059720,0.000E+0,
131.108550,0.000E+0,
131.157380,0.000E+0,
131.206210,0.000E+0,
131.25500,0.000E+0,
131.303870,0.000E+0,
131.352700,0.000E+0,
131.401530,0.000E+0,
131.450360,0.000E+0,
131.499190,0.000E+0,
131.54800,1.000E+0,
131.596850,0.000E+0,
131.645680,0.000E+0,
131.694510,0.000E+0,
131.743340,0.000E+0,
131.792170,0.000E+0,
131.84100,0.000E+0,
131.889830,0.000E+0,
131.938660,0.000E+0,
131.987490,0.000E+0,
132.036320,1.000E+0,
132.085150,0.000E+0,
132.13400,0.000E+0,
132.182810,0.000E+0,
132.231640,0.000E+0,
132.280470,1.000E+0,
132.329300,0.000E+0,
132.378130,0.000E+0,
132.42700,0.000E+0,
132.475790,0.000E+0,
132.524620,0.000E+0,
132.573450,0.000E+0,
132.622280,0.000E+0,
132.671110,1.000E+0,
132.719940,0.000E+0,
132.768770,0.000E+0,
132.817600,0.000E+0,
132.866430,0.000E+0,
132.915260,0.000E+0,
132.964090,0.000E+0,
133.012920,0.000E+0,
133.061750,0.000E+0,
133.110580,0.000E+0,
133.159410,0.000E+0,
133.208240,0.000E+0,
133.257070,0.000E+0,
133.305900,0.000E+0,
133.354730,0.000E+0,
133.403560,1.000E+0,
133.452390,0.000E+0,
133.501220,0.000E+0,
133.5500,0.000E+0,
133.598880,0.000E+0,
133.647710,0.000E+0,
133.696540,0.000E+0,
133.745370,0.000E+0,
133.794200,0.000E+0,
133.84300,1.000E+0,
133.891860,0.000E+0,
133.940690,0.000E+0,
133.989520,0.000E+0,
134.038350,0.000E+0,
134.087180,0.000E+0,
134.13600,0.000E+0,
134.184840,0.000E+0,
134.233670,1.000E+0,
134.282500,0.000E+0,
134.331330,0.000E+0,
134.380160,0.000E+0,
134.42900,1.000E+0,
134.477820,0.000E+0,
134.526650,0.000E+0,
134.575480,0.000E+0,
134.624310,1.000E+0,
134.673140,0.000E+0,
134.72200,0.000E+0,
134.770800,1.000E+0,
134.819630,0.000E+0,
134.868460,0.000E+0,
134.917290,0.000E+0,
134.966120,0.000E+0,
135.014950,0.000E+0,
135.063780,0.000E+0,
135.112610,0.000E+0,
135.161440,0.000E+0,
135.210270,0.000E+0,
135.259100,0.000E+0,
135.307930,0.000E+0,
135.356760,0.000E+0,
135.405590,0.000E+0,
135.454420,0.000E+0,
135.503250,0.000E+0,
135.552080,0.000E+0,
135.600910,0.000E+0,
135.649740,0.000E+0,
135.698570,0.000E+0,
135.747400,0.000E+0,
135.796230,0.000E+0,
135.845060,1.000E+0,
135.893890,1.000E+0,
135.942720,0.000E+0,
135.991550,1.000E+0,
136.040380,0.000E+0,
136.089210,0.000E+0,
136.13800,0.000E+0,
136.186870,0.000E+0,
136.235700,0.000E+0,
136.284530,0.000E+0,
136.333360,0.000E+0,
136.382190,0.000E+0,
136.43100,0.000E+0,
136.479850,0.000E+0,
136.528680,0.000E+0,
136.577510,0.000E+0,
136.626340,0.000E+0,
136.675170,0.000E+0,
136.72400,0.000E+0,
136.772830,0.000E+0,
136.821660,1.000E+0,
136.870490,0.000E+0,
136.919320,1.000E+0,
136.968150,0.000E+0,
137.01700,0.000E+0,
137.065810,0.000E+0,
137.114640,0.000E+0,
137.163470,0.000E+0,
137.212300,0.000E+0,
137.261130,0.000E+0,
137.3100,0.000E+0,
137.358790,0.000E+0,
137.407620,0.000E+0,
137.456450,0.000E+0,
137.505280,0.000E+0,
137.554110,3.000E+0,
137.602940,0.000E+0,
137.651770,0.000E+0,
137.700600,0.000E+0,
137.749430,0.000E+0,
137.798260,0.000E+0,
137.847090,0.000E+0,
137.895920,0.000E+0,
137.944750,0.000E+0,
137.993580,0.000E+0,
138.042410,0.000E+0,
138.091240,2.000E+0,
138.140070,0.000E+0,
138.188900,0.000E+0,
138.237730,0.000E+0,
138.286560,0.000E+0,
138.335390,0.000E+0,
138.384220,1.000E+0,
138.43300,0.000E+0,
138.481880,0.000E+0,
138.530710,1.000E+0,
138.579540,0.000E+0,
138.628370,0.000E+0,
138.677200,0.000E+0,
138.72600,0.000E+0,
138.774860,0.000E+0,
138.823690,0.000E+0,
138.872520,0.000E+0,
138.921350,0.000E+0,
138.970180,1.000E+0,
139.01900,0.000E+0,
139.067840,0.000E+0,
139.116670,0.000E+0,
139.165500,0.000E+0,
139.214330,0.000E+0,
139.263160,0.000E+0,
139.31200,1.000E+0,
139.360820,0.000E+0,
139.409650,0.000E+0,
139.458480,1.000E+0,
139.507310,1.000E+0,
139.556140,0.000E+0,
139.60500,0.000E+0,
139.653800,0.000E+0,
139.702630,0.000E+0,
139.751460,0.000E+0,
139.800290,0.000E+0,
139.849120,0.000E+0,
139.897950,0.000E+0,
139.946780,0.000E+0,
139.995610,1.000E+0,
140.044440,0.000E+0,
140.093270,1.000E+0,
140.142100,0.000E+0,
140.190930,0.000E+0,
140.239760,0.000E+0,
140.288590,0.000E+0,
140.337420,0.000E+0,
140.386250,1.000E+0,
140.435080,0.000E+0,
140.483910,0.000E+0,
140.532740,0.000E+0,
140.581570,0.000E+0,
140.630400,1.000E+0,
140.679230,0.000E+0,
140.728060,0.000E+0,
140.776890,1.000E+0,
140.825720,0.000E+0,
140.874550,0.000E+0,
140.923380,0.000E+0,
140.972210,0.000E+0,
141.02100,0.000E+0,
141.069870,0.000E+0,
141.118700,1.000E+0,
141.167530,0.000E+0,
141.216360,0.000E+0,
141.265190,0.000E+0,
141.31400,1.000E+0,
141.362850,0.000E+0,
141.411680,0.000E+0,
141.460510,0.000E+0,
141.509340,0.000E+0,
141.558170,0.000E+0,
141.60700,0.000E+0,
141.655830,0.000E+0,
141.704660,1.000E+0,
141.753490,0.000E+0,
141.802320,0.000E+0,
141.851150,0.000E+0,
141.900,0.000E+0,
141.948810,0.000E+0,
141.997640,1.000E+0,
142.046470,0.000E+0,
142.095300,0.000E+0,
142.144130,0.000E+0,
142.19300,1.000E+0,
142.241790,0.000E+0,
142.290620,0.000E+0,
142.339450,0.000E+0,
142.388280,0.000E+0,
142.437110,0.000E+0,
142.485940,0.000E+0,
142.534770,0.000E+0,
142.583600,0.000E+0,
142.632430,0.000E+0,
142.681260,0.000E+0,
142.730090,1.000E+0,
142.778920,0.000E+0,
142.827750,0.000E+0,
142.876580,1.000E+0,
142.925410,0.000E+0,
142.974240,0.000E+0,
143.023070,0.000E+0,
143.071900,0.000E+0,
143.120730,0.000E+0,
143.169560,0.000E+0,
143.218390,0.000E+0,
143.267220,0.000E+0,
143.31600,0.000E+0,
143.364880,1.000E+0,
143.413710,0.000E+0,
143.462540,0.000E+0,
143.511370,0.000E+0,
143.560200,0.000E+0,
143.60900,0.000E+0,
143.657860,0.000E+0,
143.706690,0.000E+0,
143.755520,1.000E+0,
143.804350,0.000E+0,
143.853180,0.000E+0,
143.90200,0.000E+0,
143.950840,0.000E+0,
143.999670,0.000E+0,
144.048500,0.000E+0,
144.097330,0.000E+0,
144.146160,0.000E+0,
144.19500,0.000E+0,
144.243820,0.000E+0,
144.292650,0.000E+0,
144.341480,0.000E+0,
144.390310,0.000E+0,
144.439140,0.000E+0,
144.48800,0.000E+0,
144.536800,0.000E+0,
144.585630,0.000E+0,
144.634460,0.000E+0,
144.683290,0.000E+0,
144.732120,0.000E+0,
144.780950,0.000E+0,
144.829780,0.000E+0,
144.878610,0.000E+0,
144.927440,0.000E+0,
144.976270,0.000E+0,
145.025100,0.000E+0,
145.073930,0.000E+0,
145.122760,0.000E+0,
145.171590,0.000E+0,
145.220420,0.000E+0,
145.269250,0.000E+0,
145.318080,1.000E+0,
145.366910,0.000E+0,
145.415740,0.000E+0,
145.464570,0.000E+0,
145.513400,0.000E+0,
145.562230,0.000E+0,
145.611060,0.000E+0,
145.659890,0.000E+0,
145.708720,0.000E+0,
145.757550,0.000E+0,
145.806380,0.000E+0,
145.855210,0.000E+0,
145.90400,0.000E+0,
145.952870,0.000E+0,
146.001700,0.000E+0,
146.050530,0.000E+0,
146.099360,0.000E+0,
146.148190,0.000E+0,
146.19700,0.000E+0,
146.245850,0.000E+0,
146.294680,0.000E+0,
146.343510,0.000E+0,
146.392340,0.000E+0,
146.441170,0.000E+0,
146.4900,0.000E+0,
146.538830,0.000E+0,
146.587660,0.000E+0,
146.636490,0.000E+0,
146.685320,0.000E+0,
146.734150,1.000E+0,
146.78300,0.000E+0,
146.831810,0.000E+0,
146.880640,0.000E+0,
146.929470,0.000E+0,
146.978300,0.000E+0,
147.027130,1.000E+0,
147.07600,0.000E+0,
147.124790,0.000E+0,
147.173620,0.000E+0,
147.222450,0.000E+0,
147.271280,1.000E+0,
147.320110,0.000E+0,
147.368940,0.000E+0,
147.417770,0.000E+0,
147.466600,0.000E+0,
147.515430,0.000E+0,
147.564260,0.000E+0,
147.613090,0.000E+0,
147.661920,0.000E+0,
147.710750,0.000E+0,
147.759580,0.000E+0,
147.808410,0.000E+0,
147.857240,1.000E+0,
147.906070,0.000E+0,
147.954900,0.000E+0,
148.003730,0.000E+0,
148.052560,1.000E+0,
148.101390,0.000E+0,
148.150220,0.000E+0,
148.19900,0.000E+0,
148.247880,0.000E+0,
148.296710,0.000E+0,
148.345540,0.000E+0,
148.394370,0.000E+0,
148.443200,0.000E+0,
148.49200,1.000E+0,
148.540860,0.000E+0,
148.589690,0.000E+0,
148.638520,1.000E+0,
148.687350,0.000E+0,
148.736180,0.000E+0,
148.78500,0.000E+0,
148.833840,0.000E+0,
148.882670,0.000E+0,
148.931500,0.000E+0,
148.980330,1.000E+0,
149.029160,0.000E+0,
149.07800,0.000E+0,
149.126820,0.000E+0,
149.175650,0.000E+0,
149.224480,0.000E+0,
149.273310,0.000E+0,
149.322140,0.000E+0,
149.37100,0.000E+0,
149.419800,0.000E+0,
149.468630,0.000E+0,
149.517460,0.000E+0,
149.566290,0.000E+0,
149.615120,0.000E+0,
149.663950,0.000E+0,
149.712780,0.000E+0,
149.761610,0.000E+0,
149.810440,0.000E+0,
149.859270,0.000E+0,
149.908100,0.000E+0,
149.956930,0.000E+0,
150.005760,0.000E+0,
150.054590,0.000E+0,
150.103420,0.000E+0,
150.152250,0.000E+0,
150.201080,0.000E+0,
150.249910,0.000E+0,
150.298740,0.000E+0,
150.347570,0.000E+0,
150.396400,0.000E+0,
150.445230,0.000E+0,
150.494060,0.000E+0,
150.542890,0.000E+0,
150.591720,0.000E+0,
150.640550,0.000E+0,
150.689380,0.000E+0,
150.738210,0.000E+0,
150.78700,1.000E+0,
150.835870,0.000E+0,
150.884700,1.000E+0,
150.933530,0.000E+0,
150.982360,0.000E+0,
151.031190,0.000E+0,
151.0800,0.000E+0,
151.128850,0.000E+0,
151.177680,0.000E+0,
151.226510,0.000E+0,
151.275340,0.000E+0,
151.324170,0.000E+0,
151.37300,0.000E+0,
151.421830,0.000E+0,
151.470660,0.000E+0,
151.519490,0.000E+0,
151.568320,1.000E+0,
151.617150,0.000E+0,
151.66600,0.000E+0,
151.714810,0.000E+0,
151.763640,0.000E+0,
151.812470,0.000E+0,
151.861300,1.000E+0,
151.910130,0.000E+0,
151.95900,0.000E+0,
152.007790,0.000E+0,
152.056620,0.000E+0,
152.105450,1.000E+0,
152.154280,0.000E+0,
152.203110,0.000E+0,
152.251940,1.000E+0,
152.300770,0.000E+0,
152.349600,0.000E+0,
152.398430,0.000E+0,
152.447260,0.000E+0,
152.496090,1.000E+0,
152.544920,0.000E+0,
152.593750,0.000E+0,
152.642580,0.000E+0,
152.691410,0.000E+0,
152.740240,0.000E+0,
152.789070,0.000E+0,
152.837900,1.000E+0,
152.886730,0.000E+0,
152.935560,0.000E+0,
152.984390,0.000E+0,
153.033220,1.000E+0,
153.08200,1.000E+0,
153.130880,0.000E+0,
153.179710,0.000E+0,
153.228540,0.000E+0,
153.277370,1.000E+0,
153.326200,0.000E+0,
153.37500,0.000E+0,
153.423860,0.000E+0,
153.472690,1.000E+0,
153.521520,0.000E+0,
153.570350,0.000E+0,
153.619180,0.000E+0,
153.66800,0.000E+0,
153.716840,1.000E+0,
153.765670,0.000E+0,
153.814500,0.000E+0,
153.863330,1.000E+0,
153.912160,1.000E+0,
153.96100,0.000E+0,
154.009820,0.000E+0,
154.058650,0.000E+0,
154.107480,0.000E+0,
154.156310,0.000E+0,
154.205140,0.000E+0,
154.25400,0.000E+0,
154.302800,0.000E+0,
154.351630,0.000E+0,
154.400460,0.000E+0,
154.449290,0.000E+0,
154.498120,0.000E+0,
154.546950,0.000E+0,
154.595780,0.000E+0,
154.644610,0.000E+0,
154.693440,0.000E+0,
154.742270,0.000E+0,
154.791100,1.000E+0,
154.839930,0.000E+0,
154.888760,0.000E+0,
154.937590,2.000E+0,
154.986420,0.000E+0,
155.035250,0.000E+0,
155.084080,0.000E+0,
155.132910,0.000E+0,
155.181740,0.000E+0,
155.230570,0.000E+0,
155.279400,0.000E+0,
155.328230,0.000E+0,
155.377060,0.000E+0,
155.425890,0.000E+0,
155.474720,0.000E+0,
155.523550,0.000E+0,
155.572380,0.000E+0,
155.621210,1.000E+0,
155.6700,0.000E+0,
155.718870,0.000E+0,
155.767700,1.000E+0,
155.816530,0.000E+0,
155.865360,0.000E+0,
155.914190,0.000E+0,
155.96300,0.000E+0,
156.011850,0.000E+0,
156.060680,0.000E+0,
156.109510,0.000E+0,
156.158340,0.000E+0,
156.207170,0.000E+0,
156.25600,0.000E+0,
156.304830,0.000E+0,
156.353660,0.000E+0,
156.402490,0.000E+0,
156.451320,0.000E+0,
156.500150,0.000E+0,
156.54900,0.000E+0,
156.597810,0.000E+0,
156.646640,0.000E+0,
156.695470,0.000E+0,
156.744300,1.000E+0,
156.793130,0.000E+0,
156.84200,0.000E+0,
156.890790,1.000E+0,
156.939620,0.000E+0,
156.988450,0.000E+0,
157.037280,0.000E+0,
157.086110,0.000E+0,
157.134940,0.000E+0,
157.183770,0.000E+0,
157.232600,0.000E+0,
157.281430,0.000E+0,
157.330260,0.000E+0,
157.379090,0.000E+0,
157.427920,0.000E+0,
157.476750,0.000E+0,
157.525580,0.000E+0,
157.574410,0.000E+0,
157.623240,0.000E+0,
157.672070,0.000E+0,
157.720900,0.000E+0,
157.769730,0.000E+0,
157.818560,0.000E+0,
157.867390,0.000E+0,
157.916220,1.000E+0,
157.96500,0.000E+0,
158.013880,0.000E+0,
158.062710,1.000E+0,
158.111540,0.000E+0,
158.160370,0.000E+0,
158.209200,0.000E+0,
158.25800,0.000E+0,
158.306860,0.000E+0,
158.355690,0.000E+0,
158.404520,0.000E+0,
158.453350,0.000E+0,
158.502180,0.000E+0,
158.55100,0.000E+0,
158.599840,0.000E+0,
158.648670,0.000E+0,
158.697500,0.000E+0,
158.746330,0.000E+0,
158.795160,0.000E+0,
158.84400,0.000E+0,
158.892820,0.000E+0,
158.941650,0.000E+0,
158.990480,0.000E+0,
159.039310,0.000E+0,
159.088140,0.000E+0,
159.13700,0.000E+0,
159.185800,0.000E+0,
159.234630,0.000E+0,
159.283460,0.000E+0,
159.332290,0.000E+0,
159.381120,1.000E+0,
159.429950,0.000E+0,
159.478780,0.000E+0,
159.527610,0.000E+0,
159.576440,0.000E+0,
159.625270,0.000E+0,
159.674100,1.000E+0,
159.722930,0.000E+0,
159.771760,0.000E+0,
159.820590,0.000E+0,
159.869420,0.000E+0,
159.918250,0.000E+0,
159.967080,0.000E+0,
160.015910,0.000E+0,
160.064740,0.000E+0,
160.113570,0.000E+0,
160.162400,0.000E+0,
160.211230,0.000E+0,
160.260060,1.000E+0,
160.308890,0.000E+0,
160.357720,0.000E+0,
160.406550,0.000E+0,
160.455380,0.000E+0,
160.504210,0.000E+0,
160.55300,0.000E+0,
160.601870,0.000E+0,
160.650700,0.000E+0,
160.699530,1.000E+0,
160.748360,0.000E+0,
160.797190,0.000E+0,
160.84600,1.000E+0,
160.894850,0.000E+0,
160.943680,0.000E+0,
160.992510,0.000E+0,
161.041340,0.000E+0,
161.090170,0.000E+0,
161.13900,0.000E+0,
161.187830,0.000E+0,
161.236660,0.000E+0,
161.285490,0.000E+0,
161.334320,0.000E+0,
161.383150,0.000E+0,
161.43200,0.000E+0,
161.480810,0.000E+0,
161.529640,0.000E+0,
161.578470,0.000E+0,
161.627300,0.000E+0,
161.676130,0.000E+0,
161.72500,0.000E+0,
161.773790,1.000E+0,
161.822620,0.000E+0,
161.871450,0.000E+0,
161.920280,1.000E+0,
161.969110,0.000E+0,
162.017940,0.000E+0,
162.066770,0.000E+0,
162.115600,0.000E+0,
162.164430,0.000E+0,
162.213260,0.000E+0,
162.262090,0.000E+0,
162.310920,0.000E+0,
162.359750,1.000E+0,
162.408580,0.000E+0,
162.457410,0.000E+0,
162.506240,0.000E+0,
162.555070,0.000E+0,
162.603900,0.000E+0,
162.652730,0.000E+0,
162.701560,0.000E+0,
162.750390,0.000E+0,
162.799220,0.000E+0,
162.84800,0.000E+0,
162.896880,0.000E+0,
162.945710,0.000E+0,
162.994540,0.000E+0,
163.043370,0.000E+0,
163.092200,0.000E+0,
163.14100,0.000E+0,
163.189860,2.000E+0,
163.238690,0.000E+0,
163.287520,0.000E+0,
163.336350,0.000E+0,
163.385180,1.000E+0,
163.43400,0.000E+0,
163.482840,0.000E+0,
163.531670,0.000E+0,
163.580500,0.000E+0,
163.629330,0.000E+0,
163.678160,0.000E+0,
163.72700,0.000E+0,
163.775820,0.000E+0,
163.824650,0.000E+0,
163.873480,0.000E+0,
163.922310,0.000E+0,
163.971140,0.000E+0,
164.0200,0.000E+0,
164.068800,0.000E+0,
164.117630,0.000E+0,
164.166460,0.000E+0,
164.215290,0.000E+0,
164.264120,0.000E+0,
164.312950,0.000E+0,
164.361780,0.000E+0,
164.410610,0.000E+0,
164.459440,0.000E+0,
164.508270,0.000E+0,
164.557100,0.000E+0,
164.605930,0.000E+0,
164.654760,0.000E+0,
164.703590,0.000E+0,
164.752420,0.000E+0,
164.801250,0.000E+0,
164.850080,0.000E+0,
164.898910,0.000E+0,
164.947740,0.000E+0,
164.996570,0.000E+0,
165.045400,0.000E+0,
165.094230,0.000E+0,
165.143060,0.000E+0,
165.191890,0.000E+0,
165.240720,0.000E+0,
165.289550,0.000E+0,
165.338380,0.000E+0,
165.387210,0.000E+0,
165.43600,0.000E+0,
165.484870,0.000E+0,
165.533700,0.000E+0,
165.582530,0.000E+0,
165.631360,0.000E+0,
165.680190,0.000E+0,
165.72900,0.000E+0,
165.777850,0.000E+0,
165.826680,0.000E+0,
165.875510,0.000E+0,
165.924340,0.000E+0,
165.973170,0.000E+0,
166.02200,0.000E+0,
166.070830,0.000E+0,
166.119660,0.000E+0,
166.168490,0.000E+0,
166.217320,0.000E+0,
166.266150,0.000E+0,
166.31500,0.000E+0,
166.363810,0.000E+0,
166.412640,0.000E+0,
166.461470,0.000E+0,
166.510300,0.000E+0,
166.559130,0.000E+0,
166.60800,0.000E+0,
166.656790,1.000E+0,
166.705620,0.000E+0,
166.754450,0.000E+0,
166.803280,0.000E+0,
166.852110,0.000E+0,
166.900940,0.000E+0,
166.949770,0.000E+0,
166.998600,0.000E+0,
167.047430,0.000E+0,
167.096260,0.000E+0,
167.145090,0.000E+0,
167.193920,0.000E+0,
167.242750,0.000E+0,
167.291580,0.000E+0,
167.340410,0.000E+0,
167.389240,0.000E+0,
167.438070,0.000E+0,
167.486900,0.000E+0,
167.535730,0.000E+0,
167.584560,0.000E+0,
167.633390,0.000E+0,
167.682220,2.000E+0,
167.73100,0.000E+0,
167.779880,0.000E+0,
167.828710,0.000E+0,
167.877540,1.000E+0,
167.926370,0.000E+0,
167.975200,0.000E+0,
168.02400,0.000E+0,
168.072860,0.000E+0,
168.121690,0.000E+0,
168.170520,0.000E+0,
168.219350,0.000E+0,
168.268180,0.000E+0,
168.31700,0.000E+0,
168.365840,0.000E+0,
168.414670,0.000E+0,
168.463500,0.000E+0,
168.512330,0.000E+0,
168.561160,0.000E+0,
168.6100,0.000E+0,
168.658820,0.000E+0,
168.707650,0.000E+0,
168.756480,0.000E+0,
168.805310,0.000E+0,
168.854140,0.000E+0,
168.90300,1.000E+0,
168.951800,0.000E+0,
169.000630,0.000E+0,
169.049460,0.000E+0,
169.098290,1.000E+0,
169.147120,0.000E+0,
169.195950,0.000E+0,
169.244780,0.000E+0,
169.293610,0.000E+0,
169.342440,0.000E+0,
169.391270,1.000E+0,
169.440100,0.000E+0,
169.488930,0.000E+0,
169.537760,1.000E+0,
169.586590,0.000E+0,
169.635420,0.000E+0,
169.684250,1.000E+0,
169.733080,0.000E+0,
169.781910,0.000E+0,
169.830740,0.000E+0,
169.879570,0.000E+0,
169.928400,0.000E+0,
169.977230,0.000E+0,
170.026060,0.000E+0,
170.074890,0.000E+0,
170.123720,0.000E+0,
170.172550,0.000E+0,
170.221380,0.000E+0,
170.270210,0.000E+0,
170.31900,0.000E+0,
170.367870,2.000E+0,
170.416700,0.000E+0,
170.465530,0.000E+0,
170.514360,0.000E+0,
170.563190,0.000E+0,
170.61200,0.000E+0,
170.660850,0.000E+0,
170.709680,0.000E+0,
170.758510,0.000E+0,
170.807340,0.000E+0,
170.856170,0.000E+0,
170.90500,0.000E+0,
170.953830,0.000E+0,
171.002660,0.000E+0,
171.051490,0.000E+0,
171.100320,1.000E+0,
171.149150,0.000E+0,
171.19800,1.000E+0,
171.246810,0.000E+0,
171.295640,0.000E+0,
171.344470,0.000E+0,
171.393300,0.000E+0,
171.442130,1.000E+0,
171.49100,0.000E+0,
171.539790,0.000E+0,
171.588620,0.000E+0,
171.637450,0.000E+0,
171.686280,0.000E+0,
171.735110,0.000E+0,
171.783940,0.000E+0,
171.832770,1.000E+0,
171.881600,0.000E+0,
171.930430,0.000E+0,
171.979260,0.000E+0,
172.028090,0.000E+0,
172.076920,1.000E+0,
172.125750,0.000E+0,
172.174580,0.000E+0,
172.223410,0.000E+0,
172.272240,0.000E+0,
172.321070,0.000E+0,
172.369900,0.000E+0,
172.418730,0.000E+0,
172.467560,1.000E+0,
172.516390,0.000E+0,
172.565220,0.000E+0,
172.61400,0.000E+0,
172.662880,0.000E+0,
172.711710,1.000E+0,
172.760540,0.000E+0,
172.809370,0.000E+0,
172.858200,0.000E+0,
172.90700,0.000E+0,
172.955860,1.000E+0,
173.004690,0.000E+0,
173.053520,0.000E+0,
173.102350,0.000E+0,
173.151180,0.000E+0,
173.200,1.000E+0,
173.248840,0.000E+0,
173.297670,0.000E+0,
173.346500,0.000E+0,
173.395330,0.000E+0,
173.444160,0.000E+0,
173.49300,0.000E+0,
173.541820,0.000E+0,
173.590650,0.000E+0,
173.639480,0.000E+0,
173.688310,0.000E+0,
173.737140,0.000E+0,
173.78600,0.000E+0,
173.834800,0.000E+0,
173.883630,0.000E+0,
173.932460,0.000E+0,
173.981290,0.000E+0,
174.030120,0.000E+0,
174.078950,0.000E+0,
174.127780,0.000E+0,
174.176610,0.000E+0,
174.225440,0.000E+0,
174.274270,0.000E+0,
174.323100,0.000E+0,
174.371930,0.000E+0,
174.420760,0.000E+0,
174.469590,0.000E+0,
174.518420,0.000E+0,
174.567250,0.000E+0,
174.616080,0.000E+0,
174.664910,0.000E+0,
174.713740,1.000E+0,
174.762570,0.000E+0,
174.811400,0.000E+0,
174.860230,1.000E+0,
174.909060,0.000E+0,
174.957890,0.000E+0,
175.006720,1.000E+0,
175.055550,0.000E+0,
175.104380,0.000E+0,
175.153210,0.000E+0,
175.20200,0.000E+0,
175.250870,0.000E+0,
175.299700,0.000E+0,
175.348530,0.000E+0,
175.397360,0.000E+0,
175.446190,0.000E+0,
175.49500,0.000E+0,
175.543850,0.000E+0,
175.592680,0.000E+0,
175.641510,0.000E+0,
175.690340,0.000E+0,
175.739170,0.000E+0,
175.78800,0.000E+0,
175.836830,0.000E+0,
175.885660,0.000E+0,
175.934490,0.000E+0,
175.983320,0.000E+0,
176.032150,0.000E+0,
176.08100,0.000E+0,
176.129810,0.000E+0,
176.178640,0.000E+0,
176.227470,1.000E+0,
176.276300,0.000E+0,
176.325130,0.000E+0,
176.37400,0.000E+0,
176.422790,0.000E+0,
176.471620,0.000E+0,
176.520450,0.000E+0,
176.569280,0.000E+0,
176.618110,1.000E+0,
176.666940,0.000E+0,
176.715770,0.000E+0,
176.764600,0.000E+0,
176.813430,0.000E+0,
176.862260,0.000E+0,
176.911090,0.000E+0,
176.959920,0.000E+0,
177.008750,0.000E+0,
177.057580,0.000E+0,
177.106410,0.000E+0,
177.155240,0.000E+0,
177.204070,0.000E+0,
177.252900,0.000E+0,
177.301730,0.000E+0,
177.350560,0.000E+0,
177.399390,1.000E+0,
177.448220,0.000E+0,
177.49700,0.000E+0,
177.545880,0.000E+0,
177.594710,0.000E+0,
177.643540,0.000E+0,
177.692370,0.000E+0,
177.741200,0.000E+0,
177.7900,1.000E+0,
177.838860,0.000E+0,
177.887690,0.000E+0,
177.936520,0.000E+0,
177.985350,0.000E+0,
178.034180,0.000E+0,
178.08300,0.000E+0,
178.131840,1.000E+0,
178.180670,0.000E+0,
178.229500,0.000E+0,
178.278330,0.000E+0,
178.327160,1.000E+0,
178.37600,0.000E+0,
178.424820,0.000E+0,
178.473650,0.000E+0,
178.522480,0.000E+0,
178.571310,1.000E+0,
178.620140,0.000E+0,
178.66900,0.000E+0,
178.717800,0.000E+0,
178.766630,1.000E+0,
178.815460,0.000E+0,
178.864290,0.000E+0,
178.913120,0.000E+0,
178.961950,0.000E+0,
179.010780,0.000E+0,
179.059610,0.000E+0,
179.108440,0.000E+0,
179.157270,0.000E+0,
179.206100,1.000E+0,
179.254930,0.000E+0,
179.303760,0.000E+0,
179.352590,0.000E+0,
179.401420,1.000E+0,
179.450250,0.000E+0,
179.499080,0.000E+0,
179.547910,0.000E+0,
179.596740,0.000E+0,
179.645570,0.000E+0,
179.694400,0.000E+0,
179.743230,0.000E+0,
179.792060,1.000E+0,
179.840890,0.000E+0,
179.889720,0.000E+0,
179.938550,1.000E+0,
179.987380,1.000E+0,
180.036210,0.000E+0,
180.08500,0.000E+0,
180.133870,0.000E+0,
180.182700,0.000E+0,
180.231530,0.000E+0,
180.280360,0.000E+0,
180.329190,0.000E+0,
180.37800,0.000E+0,
180.426850,0.000E+0,
180.475680,0.000E+0,
180.524510,0.000E+0,
180.573340,0.000E+0,
180.622170,0.000E+0,
180.67100,0.000E+0,
180.719830,0.000E+0,
180.768660,1.000E+0,
180.817490,0.000E+0,
180.866320,0.000E+0,
180.915150,0.000E+0,
180.96400,0.000E+0,
181.012810,0.000E+0,
181.061640,0.000E+0,
181.110470,0.000E+0,
181.159300,0.000E+0,
181.208130,0.000E+0,
181.25700,0.000E+0,
181.305790,0.000E+0,
181.354620,0.000E+0,
181.403450,1.000E+0,
181.452280,0.000E+0,
181.501110,0.000E+0,
181.549940,0.000E+0,
181.598770,0.000E+0,
181.647600,0.000E+0,
181.696430,0.000E+0,
181.745260,0.000E+0,
181.794090,0.000E+0,
181.842920,1.000E+0,
181.891750,0.000E+0,
181.940580,0.000E+0,
181.989410,0.000E+0,
182.038240,0.000E+0,
182.087070,0.000E+0,
182.135900,0.000E+0,
182.184730,0.000E+0,
182.233560,0.000E+0,
182.282390,0.000E+0,
182.331220,0.000E+0,
182.3800,0.000E+0,
182.428880,0.000E+0,
182.477710,0.000E+0,
182.526540,0.000E+0,
182.575370,1.000E+0,
182.624200,0.000E+0,
182.67300,0.000E+0,
182.721860,0.000E+0,
182.770690,0.000E+0,
182.819520,0.000E+0,
182.868350,0.000E+0,
182.917180,0.000E+0,
182.96600,0.000E+0,
183.014840,0.000E+0,
183.063670,0.000E+0,
183.112500,0.000E+0,
183.161330,0.000E+0,
183.210160,0.000E+0,
183.25900,0.000E+0,
183.307820,0.000E+0,
183.356650,1.000E+0,
183.405480,0.000E+0,
183.454310,0.000E+0,
183.503140,0.000E+0,
183.55200,0.000E+0,
183.600800,0.000E+0,
183.649630,0.000E+0,
183.698460,0.000E+0,
183.747290,0.000E+0,
183.796120,0.000E+0,
183.844950,0.000E+0,
183.893780,0.000E+0,
183.942610,0.000E+0,
183.991440,0.000E+0,
184.040270,0.000E+0,
184.089100,0.000E+0,
184.137930,0.000E+0,
184.186760,0.000E+0,
184.235590,0.000E+0,
184.284420,0.000E+0,
184.333250,0.000E+0,
184.382080,0.000E+0,
184.430910,0.000E+0,
184.479740,0.000E+0,
184.528570,0.000E+0,
184.577400,0.000E+0,
184.626230,0.000E+0,
184.675060,0.000E+0,
184.723890,0.000E+0,
184.772720,0.000E+0,
184.821550,0.000E+0,
184.870380,0.000E+0,
184.919210,0.000E+0,
184.96800,0.000E+0,
185.016870,0.000E+0,
185.065700,0.000E+0,
185.114530,0.000E+0,
185.163360,0.000E+0,
185.212190,0.000E+0,
185.26100,1.000E+0,
185.309850,0.000E+0,
185.358680,0.000E+0,
185.407510,0.000E+0,
185.456340,0.000E+0,
185.505170,0.000E+0,
185.55400,0.000E+0,
185.602830,0.000E+0,
185.651660,0.000E+0,
185.700490,0.000E+0,
185.749320,1.000E+0,
185.798150,0.000E+0,
185.84700,0.000E+0,
185.895810,0.000E+0,
185.944640,0.000E+0,
185.993470,0.000E+0,
186.042300,0.000E+0,
186.091130,0.000E+0,
186.1400,0.000E+0,
186.188790,0.000E+0,
186.237620,0.000E+0,
186.286450,0.000E+0,
186.335280,0.000E+0,
186.384110,0.000E+0,
186.432940,0.000E+0,
186.481770,0.000E+0,
186.530600,0.000E+0,
186.579430,0.000E+0,
186.628260,0.000E+0,
186.677090,0.000E+0,
186.725920,0.000E+0,
186.774750,0.000E+0,
186.823580,1.000E+0,
186.872410,0.000E+0,
186.921240,0.000E+0,
186.970070,0.000E+0,
187.018900,0.000E+0,
187.067730,0.000E+0,
187.116560,0.000E+0,
187.165390,0.000E+0,
187.214220,0.000E+0,
187.26300,0.000E+0,
187.311880,1.000E+0,
187.360710,0.000E+0,
187.409540,0.000E+0,
187.458370,1.000E+0,
187.507200,0.000E+0,
187.55600,0.000E+0,
187.604860,0.000E+0,
187.653690,0.000E+0,
187.702520,0.000E+0,
187.751350,0.000E+0,
187.800180,0.000E+0,
187.84900,0.000E+0,
187.897840,1.000E+0,
187.946670,0.000E+0,
187.995500,0.000E+0,
188.044330,0.000E+0,
188.093160,0.000E+0,
188.14200,0.000E+0,
188.190820,0.000E+0,
188.239650,0.000E+0,
188.288480,0.000E+0,
188.337310,0.000E+0,
188.386140,1.000E+0,
188.43500,0.000E+0,
188.483800,0.000E+0,
188.532630,0.000E+0,
188.581460,0.000E+0,
188.630290,0.000E+0,
188.679120,0.000E+0,
188.727950,1.000E+0,
188.776780,0.000E+0,
188.825610,0.000E+0,
188.874440,1.000E+0,
188.923270,0.000E+0,
188.972100,1.000E+0,
189.020930,0.000E+0,
189.069760,0.000E+0,
189.118590,0.000E+0,
189.167420,0.000E+0,
189.216250,0.000E+0,
189.265080,0.000E+0,
189.313910,1.000E+0,
189.362740,0.000E+0,
189.411570,0.000E+0,
189.460400,0.000E+0,
189.509230,0.000E+0,
189.558060,0.000E+0,
189.606890,0.000E+0,
189.655720,0.000E+0,
189.704550,0.000E+0,
189.753380,0.000E+0,
189.802210,0.000E+0,
189.85100,0.000E+0,
189.899870,0.000E+0,
189.948700,0.000E+0,
189.997530,0.000E+0,
190.046360,0.000E+0,
190.095190,0.000E+0,
190.14400,0.000E+0,
190.192850,0.000E+0,
190.241680,0.000E+0,
190.290510,0.000E+0,
190.339340,1.000E+0,
190.388170,2.000E+0,
190.43700,0.000E+0,
190.485830,0.000E+0,
190.534660,0.000E+0,
190.583490,0.000E+0,
190.632320,0.000E+0,
190.681150,0.000E+0,
190.7300,0.000E+0,
190.778810,1.000E+0,
190.827640,0.000E+0,
190.876470,0.000E+0,
190.925300,0.000E+0,
190.974130,0.000E+0,
191.02300,0.000E+0,
191.071790,0.000E+0,
191.120620,1.000E+0,
191.169450,0.000E+0,
191.218280,0.000E+0,
191.267110,1.000E+0,
191.315940,1.000E+0,
191.364770,0.000E+0,
191.413600,0.000E+0,
191.462430,0.000E+0,
191.511260,0.000E+0,
191.560090,1.000E+0,
191.608920,0.000E+0,
191.657750,0.000E+0,
191.706580,0.000E+0,
191.755410,0.000E+0,
191.804240,0.000E+0,
191.853070,0.000E+0,
191.901900,0.000E+0,
191.950730,1.000E+0,
191.999560,1.000E+0,
192.048390,0.000E+0,
192.097220,0.000E+0,
192.14600,0.000E+0,
192.194880,0.000E+0,
192.243710,0.000E+0,
192.292540,0.000E+0,
192.341370,0.000E+0,
192.390200,1.000E+0,
192.43900,0.000E+0,
192.487860,0.000E+0,
192.536690,0.000E+0,
192.585520,0.000E+0,
192.634350,1.000E+0,
192.683180,0.000E+0,
192.73200,0.000E+0,
192.780840,0.000E+0,
192.829670,0.000E+0,
192.878500,0.000E+0,
192.927330,0.000E+0,
192.976160,0.000E+0,
193.02500,0.000E+0,
193.073820,0.000E+0,
193.122650,0.000E+0,
193.171480,0.000E+0,
193.220310,0.000E+0,
193.269140,0.000E+0,
193.31800,0.000E+0,
193.366800,0.000E+0,
193.415630,0.000E+0,
193.464460,0.000E+0,
193.513290,0.000E+0,
193.562120,0.000E+0,
193.610950,0.000E+0,
193.659780,0.000E+0,
193.708610,1.000E+0,
193.757440,0.000E+0,
193.806270,1.000E+0,
193.855100,0.000E+0,
193.903930,0.000E+0,
193.952760,0.000E+0,
194.001590,0.000E+0,
194.050420,0.000E+0,
194.099250,0.000E+0,
194.148080,0.000E+0,
194.196910,1.000E+0,
194.245740,0.000E+0,
194.294570,0.000E+0,
194.343400,0.000E+0,
194.392230,0.000E+0,
194.441060,0.000E+0,
194.489890,0.000E+0,
194.538720,0.000E+0,
194.587550,0.000E+0,
194.636380,0.000E+0,
194.685210,0.000E+0,
194.73400,0.000E+0,
194.782870,0.000E+0,
194.831700,0.000E+0,
194.880530,0.000E+0,
194.929360,1.000E+0,
194.978190,0.000E+0,
195.02700,0.000E+0,
195.075850,0.000E+0,
195.124680,0.000E+0,
195.173510,0.000E+0,
195.222340,0.000E+0,
195.271170,0.000E+0,
195.3200,0.000E+0,
195.368830,0.000E+0,
195.417660,0.000E+0,
195.466490,0.000E+0,
195.515320,0.000E+0,
195.564150,0.000E+0,
195.61300,0.000E+0,
195.661810,0.000E+0,
195.710640,0.000E+0,
195.759470,0.000E+0,
195.808300,0.000E+0,
195.857130,0.000E+0,
195.90600,0.000E+0,
195.954790,1.000E+0,
196.003620,0.000E+0,
196.052450,2.000E+0,
196.101280,0.000E+0,
196.150110,0.000E+0,
196.198940,0.000E+0,
196.247770,0.000E+0,
196.296600,0.000E+0,
196.345430,0.000E+0,
196.394260,0.000E+0,
196.443090,0.000E+0,
196.491920,1.000E+0,
196.540750,0.000E+0,
196.589580,0.000E+0,
196.638410,0.000E+0,
196.687240,1.000E+0,
196.736070,0.000E+0,
196.784900,0.000E+0,
196.833730,0.000E+0,
196.882560,0.000E+0,
196.931390,0.000E+0,
196.980220,0.000E+0,
197.02900,0.000E+0,
197.077880,0.000E+0,
197.126710,0.000E+0,
197.175540,0.000E+0,
197.224370,0.000E+0,
197.273200,0.000E+0,
197.32200,0.000E+0,
197.370860,0.000E+0,
197.419690,0.000E+0,
197.468520,0.000E+0,
197.517350,0.000E+0,
197.566180,0.000E+0,
197.61500,0.000E+0,
197.663840,0.000E+0,
197.712670,0.000E+0,
197.761500,0.000E+0,
197.810330,0.000E+0,
197.859160,0.000E+0,
197.90800,0.000E+0,
197.956820,0.000E+0,
198.005650,0.000E+0,
198.054480,0.000E+0,
198.103310,0.000E+0,
198.152140,0.000E+0,
198.20100,0.000E+0,
198.249800,0.000E+0,
198.298630,0.000E+0,
198.347460,0.000E+0,
198.396290,0.000E+0,
198.445120,0.000E+0,
198.493950,0.000E+0,
198.542780,0.000E+0,
198.591610,0.000E+0,
198.640440,0.000E+0,
198.689270,2.000E+0,
198.738100,1.000E+0,
198.786930,0.000E+0,
198.835760,0.000E+0,
198.884590,0.000E+0,
198.933420,0.000E+0,
198.982250,0.000E+0,
199.031080,0.000E+0,
199.079910,0.000E+0,
199.128740,0.000E+0,
199.177570,0.000E+0,
199.226400,0.000E+0,
199.275230,0.000E+0,
199.324060,0.000E+0,
199.372890,0.000E+0,
199.421720,0.000E+0,
199.470550,1.000E+0,
199.519380,0.000E+0,
199.568210,1.000E+0,
199.61700,0.000E+0,
199.665870,0.000E+0,
199.714700,0.000E+0,
199.763530,0.000E+0,
199.812360,0.000E+0,
199.861190,0.000E+0,
199.9100,0.000E+0,
199.958850,0.000E+0,
